LabVIEW Measurement	
Writer_Version	2
Reader_Version	2
Separator	Tab
Decimal_Separator	.
Multi_Headings	Yes
X_Columns	No
Time_Pref	Relative
Operator	stud40
Date	2023/03/21
Time	18:29:53.7271432876586914063
***End_of_Header***	
	
Channels	2		
Samples	1000	1000	
Date	2023/03/21	2023/03/21	
Time	18:29:53.7271432876586914063	18:29:53.7271432876586914063	
X_Dimension	Time	Time	
X0	0.0000000000000000E+0	0.0000000000000000E+0	
Delta_X	1.000000	1.000000	
***End_of_Header***			
X_Value	Untitled	Untitled 1	Comment
	0.000300	0.000000
	0.000454	0.100000
	0.000464	0.200000
	0.000527	0.300000
	0.000490	0.400000
	0.000546	0.500000
	0.000566	0.600000
	0.000464	0.700000
	0.000444	0.800000
	0.000586	0.900000
	0.000615	1.000000
	0.000434	1.100000
	7.254187E-5	1.200000
	0.000438	1.300000
	0.000122	1.400000
	0.000138	1.500000
	2.647712E-5	1.600000
	0.000112	1.700000
	3.634814E-5	1.800000
	0.000369	1.900000
	0.000540	2.000000
	0.000635	2.100000
	0.000464	2.200000
	0.000125	2.300000
	0.000214	2.400000
	0.000221	2.500000
	0.000175	2.600000
	0.000438	2.700000
	0.000560	2.800000
	0.000517	2.900000
	9.557425E-5	3.000000
	0.000148	3.100000
	0.000142	3.200000
	0.000230	3.300000
	0.000316	3.400000
	0.000263	3.500000
	0.000296	3.600000
	0.000145	3.700000
	0.000142	3.800000
	0.000207	3.900000
	0.000168	4.000000
	0.000230	4.100000
	0.000270	4.200000
	0.000214	4.300000
	0.000217	4.400000
	0.000273	4.500000
	0.000270	4.600000
	0.000250	4.700000
	0.000158	4.800000
	0.000230	4.900000
	0.000329	5.000000
	0.000224	5.100000
	0.000257	5.200000
	0.000379	5.300000
	0.000342	5.400000
	0.000332	5.500000
	0.000326	5.600000
	0.000300	5.700000
	0.000336	5.800000
	0.000352	5.900000
	0.000161	6.000000
	0.000286	6.100000
	0.000280	6.200000
	0.000411	6.300000
	0.000438	6.400000
	0.000392	6.500000
	0.000392	6.600000
	0.000329	6.700000
	0.000319	6.800000
	0.000326	6.900000
	0.000372	7.000000
	0.000434	7.100000
	0.000388	7.200000
	0.000428	7.300000
	0.000316	7.400000
	0.000303	7.500000
	0.000352	7.600000
	0.000359	7.700000
	0.000398	7.800000
	0.000286	7.900000
	0.000451	8.000000
	0.000342	8.100000
	0.000388	8.200000
	0.000319	8.300000
	0.000313	8.400000
	0.000421	8.500000
	0.000418	8.600000
	0.000309	8.700000
	0.000332	8.800000
	0.000349	8.900000
	0.000431	9.000000
	0.000372	9.100000
	0.000392	9.200000
	0.000484	9.300000
	0.000474	9.400000
	0.000415	9.500000
	0.000461	9.600000
	0.000481	9.700000
	0.000421	9.800000
	0.000385	9.900000
	9.218831	10.000000
	10.005175	10.100000
	10.003376	10.200000
	10.002984	10.300000
	10.002997	10.400000
	3.682886	10.500000
	0.000760	10.600000
	0.000254	10.700000
	0.000207	10.800000
	0.000198	10.900000
	0.000158	11.000000
	0.000128	11.100000
	0.000188	11.200000
	5.938052E-5	11.300000
	6.735081E-6	11.400000
	0.000352	11.500000
	0.000194	11.600000
	0.000135	11.700000
	0.000145	11.800000
	0.000198	11.900000
	0.000250	12.000000
	0.000175	12.100000
	0.000425	12.200000
	0.000464	12.300000
	0.000586	12.400000
	0.000520	12.500000
	0.000454	12.600000
	3.963848E-5	12.700000
	1.002542E-5	12.800000
	0.000346	12.900000
	0.000523	13.000000
	0.000487	13.100000
	0.000464	13.200000
	0.000573	13.300000
	0.000513	13.400000
	0.000382	13.500000
	0.000507	13.600000
	0.000563	13.700000
	0.000497	13.800000
	0.000543	13.900000
	0.000448	14.000000
	-5.907171E-5	14.100000
	0.000431	14.200000
	0.000207	14.300000
	0.000527	14.400000
	0.000553	14.500000
	0.000513	14.600000
	0.000464	14.700000
	0.000461	14.800000
	0.000395	14.900000
	0.000382	15.000000
	0.000418	15.100000
	0.000431	15.200000
	0.000464	15.300000
	0.000481	15.400000
	0.000497	15.500000
	0.000533	15.600000
	0.000543	15.700000
	0.000487	15.800000
	0.000520	15.900000
	0.000464	16.000000
	0.000398	16.100000
	0.000398	16.200000
	0.000500	16.300000
	0.000362	16.400000
	1.989644E-5	16.500000
	0.000461	16.600000
	0.000507	16.700000
	0.000372	16.800000
	0.000530	16.900000
	0.000484	17.000000
	0.000543	17.100000
	0.000467	17.200000
	0.000546	17.300000
	0.000510	17.400000
	0.000132	17.500000
	0.000286	17.600000
	0.000201	17.700000
	0.000513	17.800000
	0.000513	17.900000
	0.000569	18.000000
	0.000583	18.100000
	0.000283	18.200000
	0.000227	18.300000
	0.000221	18.400000
	0.000237	18.500000
	0.000250	18.600000
	0.000217	18.700000
	0.000250	18.800000
	0.000303	18.900000
	0.000273	19.000000
	0.000263	19.100000
	0.000207	19.200000
	0.000158	19.300000
	8.570323E-5	19.400000
	0.000171	19.500000
	0.000194	19.600000
	0.000201	19.700000
	0.000155	19.800000
	0.000227	19.900000
	8.241289E-5	20.000000
	0.000263	20.100000
	0.000576	20.200000
	0.000474	20.300000
	0.000214	20.400000
	0.000602	20.500000
	0.000191	20.600000
	0.000171	20.700000
	0.000201	20.800000
	9.886459E-5	20.900000
	9.557425E-5	21.000000
	0.000171	21.100000
	0.000119	21.200000
	0.000165	21.300000
	0.000102	21.400000
	0.000181	21.500000
	0.000260	21.600000
	0.000178	21.700000
	0.000211	21.800000
	0.000247	21.900000
	0.000158	22.000000
	0.000224	22.100000
	0.000207	22.200000
	0.000254	22.300000
	0.000247	22.400000
	0.000250	22.500000
	0.000122	22.600000
	0.000234	22.700000
	0.000267	22.800000
	0.000221	22.900000
	0.000263	23.000000
	0.000125	23.100000
	0.000184	23.200000
	0.000477	23.300000
	0.000132	23.400000
	0.000194	23.500000
	0.000138	23.600000
	0.000211	23.700000
	0.000132	23.800000
	0.000165	23.900000
	0.000158	24.000000
	0.000224	24.100000
	0.000227	24.200000
	0.000250	24.300000
	0.000227	24.400000
	0.000198	24.500000
	0.000135	24.600000
	0.000181	24.700000
	0.000138	24.800000
	0.000178	24.900000
	0.000227	25.000000
	0.000280	25.100000
	0.000181	25.200000
	0.000207	25.300000
	0.000217	25.400000
	0.000234	25.500000
	0.000217	25.600000
	0.000152	25.700000
	0.000263	25.800000
	0.000250	25.900000
	0.000293	26.000000
	0.000300	26.100000
	0.000411	26.200000
	0.000263	26.300000
	0.000207	26.400000
	0.000260	26.500000
	0.000224	26.600000
	0.000211	26.700000
	0.000257	26.800000
	0.000145	26.900000
	0.000244	27.000000
	0.000211	27.100000
	0.000132	27.200000
	0.000224	27.300000
	0.000303	27.400000
	0.000224	27.500000
	0.000260	27.600000
	0.000388	27.700000
	0.000122	27.800000
	0.000102	27.900000
	0.000152	28.000000
	0.000263	28.100000
	0.000309	28.200000
	0.000181	28.300000
	0.000230	28.400000
	0.000135	28.500000
	0.000145	28.600000
	0.000122	28.700000
	0.000152	28.800000
	0.000161	28.900000
	0.000227	29.000000
	0.000270	29.100000
	0.000165	29.200000
	0.000161	29.300000
	0.000135	29.400000
	0.000171	29.500000
	0.000184	29.600000
	0.000194	29.700000
	0.000145	29.800000
	9.886459E-5	29.900000
	0.000250	30.000000
	0.000510	30.100000
	0.000507	30.200000
	0.000481	30.300000
	0.000477	30.400000
	0.000606	30.500000
	0.000467	30.600000
	0.000165	30.700000
	0.000112	30.800000
	0.000122	30.900000
	0.000115	31.000000
	0.000109	31.100000
	9.228391E-5	31.200000
	0.000138	31.300000
	9.557425E-5	31.400000
	0.000221	31.500000
	0.000175	31.600000
	0.000109	31.700000
	5.279984E-5	31.800000
	0.000316	31.900000
	0.000477	32.000000
	0.000181	32.100000
	0.000181	32.200000
	0.000191	32.300000
	0.000158	32.400000
	9.557425E-5	32.500000
	0.000145	32.600000
	8.570323E-5	32.700000
	4.621916E-5	32.800000
	9.557425E-5	32.900000
	7.912255E-5	33.000000
	4.950950E-5	33.100000
	9.557425E-5	33.200000
	-5.249103E-5	33.300000
	0.000109	33.400000
	0.000392	33.500000
	0.000411	33.600000
	0.000461	33.700000
	0.000487	33.800000
	0.000530	33.900000
	0.000546	34.000000
	0.000451	34.100000
	0.000398	34.200000
	0.000132	34.300000
	7.254187E-5	34.400000
	1.002542E-5	34.500000
	5.609018E-5	34.600000
	8.570323E-5	34.700000
	3.963848E-5	34.800000
	0.000152	34.900000
	0.000211	35.000000
	0.000161	35.100000
	0.000132	35.200000
	0.000115	35.300000
	0.000296	35.400000
	6.925153E-5	35.500000
	0.000122	35.600000
	0.000201	35.700000
	0.000234	35.800000
	7.583221E-5	35.900000
	9.886459E-5	36.000000
	0.000115	36.100000
	0.000105	36.200000
	0.000175	36.300000
	0.000224	36.400000
	0.000158	36.500000
	0.000142	36.600000
	0.000240	36.700000
	0.000263	36.800000
	0.000198	36.900000
	0.000132	37.000000
	0.000543	37.100000
	0.000579	37.200000
	0.000148	37.300000
	0.000102	37.400000
	0.000207	37.500000
	0.000500	37.600000
	0.000494	37.700000
	0.000536	37.800000
	0.000273	37.900000
	0.000132	38.000000
	8.241289E-5	38.100000
	6.267086E-5	38.200000
	0.000648	38.300000
	0.000309	38.400000
	0.000158	38.500000
	7.583221E-5	38.600000
	0.000142	38.700000
	0.000125	38.800000
	0.000175	38.900000
	9.557425E-5	39.000000
	5.938052E-5	39.100000
	9.557425E-5	39.200000
	5.279984E-5	39.300000
	6.267086E-5	39.400000
	0.000152	39.500000
	0.000105	39.600000
	0.000148	39.700000
	8.899357E-5	39.800000
	0.000142	39.900000
	0.000125	40.000000
	0.000119	40.100000
	0.000138	40.200000
	0.000267	40.300000
	0.000234	40.400000
	0.000237	40.500000
	0.000286	40.600000
	0.000217	40.700000
	0.000204	40.800000
	0.000204	40.900000
	0.000306	41.000000
	0.000152	41.100000
	0.000155	41.200000
	0.000142	41.300000
	0.000165	41.400000
	0.000191	41.500000
	0.000105	41.600000
	7.583221E-5	41.700000
	5.279984E-5	41.800000
	0.000135	41.900000
	8.570323E-5	42.000000
	0.000418	42.100000
	0.000152	42.200000
	0.000204	42.300000
	0.000128	42.400000
	9.557425E-5	42.500000
	0.000102	42.600000
	0.000211	42.700000
	0.000152	42.800000
	0.000125	42.900000
	0.000224	43.000000
	0.000175	43.100000
	0.000145	43.200000
	0.000201	43.300000
	0.000125	43.400000
	0.000198	43.500000
	0.000171	43.600000
	0.000112	43.700000
	0.000201	43.800000
	0.000142	43.900000
	0.000280	44.000000
	0.000178	44.100000
	0.000188	44.200000
	0.000152	44.300000
	0.000175	44.400000
	8.899357E-5	44.500000
	0.000234	44.600000
	0.000227	44.700000
	0.000280	44.800000
	0.000356	44.900000
	0.000309	45.000000
	0.000267	45.100000
	0.000204	45.200000
	0.000237	45.300000
	0.000102	45.400000
	0.000115	45.500000
	0.000105	45.600000
	0.000138	45.700000
	0.000148	45.800000
	0.000119	45.900000
	0.000138	46.000000
	1.989644E-5	46.100000
	0.000188	46.200000
	0.000148	46.300000
	9.228391E-5	46.400000
	0.000382	46.500000
	0.000533	46.600000
	0.000543	46.700000
	0.000563	46.800000
	0.000283	46.900000
	0.000181	47.000000
	0.000119	47.100000
	0.000352	47.200000
	0.000622	47.300000
	0.000201	47.400000
	8.899357E-5	47.500000
	0.000112	47.600000
	7.254187E-5	47.700000
	0.000454	47.800000
	0.000530	47.900000
	0.000527	48.000000
	0.000332	48.100000
	0.000181	48.200000
	0.000155	48.300000
	0.000148	48.400000
	0.000214	48.500000
	0.000217	48.600000
	0.000145	48.700000
	0.000184	48.800000
	0.000217	48.900000
	0.000135	49.000000
	7.254187E-5	49.100000
	0.000155	49.200000
	0.000168	49.300000
	0.000105	49.400000
	0.000125	49.500000
	0.000158	49.600000
	0.000122	49.700000
	0.000119	49.800000
	0.000211	49.900000
	0.000178	50.000000
	0.000207	50.100000
	0.000221	50.200000
	0.000217	50.300000
	0.000392	50.400000
	0.000240	50.500000
	0.000234	50.600000
	0.000221	50.700000
	0.000237	50.800000
	0.000214	50.900000
	0.000188	51.000000
	0.000188	51.100000
	0.000214	51.200000
	0.000227	51.300000
	0.000244	51.400000
	0.000181	51.500000
	0.000115	51.600000
	7.912255E-5	51.700000
	0.000122	51.800000
	8.570323E-5	51.900000
	0.000217	52.000000
	0.000184	52.100000
	0.000109	52.200000
	4.621916E-5	52.300000
	0.000536	52.400000
	0.000536	52.500000
	0.000382	52.600000
	4.950950E-5	52.700000
	0.000152	52.800000
	0.000165	52.900000
	0.000204	53.000000
	0.000411	53.100000
	0.000178	53.200000
	0.000122	53.300000
	7.912255E-5	53.400000
	4.292882E-5	53.500000
	3.305780E-5	53.600000
	1.989644E-5	53.700000
	3.305780E-5	53.800000
	1.660610E-5	53.900000
	0.000128	54.000000
	0.000474	54.100000
	0.000487	54.200000
	0.000589	54.300000
	0.000497	54.400000
	0.000490	54.500000
	0.000477	54.600000
	0.000507	54.700000
	0.000490	54.800000
	0.000527	54.900000
	0.000625	55.000000
	0.000286	55.100000
	9.228391E-5	55.200000
	0.000109	55.300000
	0.000382	55.400000
	0.000510	55.500000
	0.000405	55.600000
	3.305780E-5	55.700000
	0.000431	55.800000
	0.000471	55.900000
	0.000461	56.000000
	0.000408	56.100000
	0.000444	56.200000
	0.000451	56.300000
	0.000556	56.400000
	0.000513	56.500000
	0.000500	56.600000
	0.000425	56.700000
	0.000487	56.800000
	0.000497	56.900000
	0.000481	57.000000
	0.000556	57.100000
	0.000385	57.200000
	0.000326	57.300000
	0.000388	57.400000
	0.000352	57.500000
	0.000300	57.600000
	0.000342	57.700000
	0.000329	57.800000
	0.000296	57.900000
	0.000211	58.000000
	0.000230	58.100000
	0.000267	58.200000
	0.000273	58.300000
	0.000221	58.400000
	0.000145	58.500000
	9.557425E-5	58.600000
	0.000270	58.700000
	0.000230	58.800000
	0.000201	58.900000
	0.000240	59.000000
	0.000349	59.100000
	0.000359	59.200000
	0.000438	59.300000
	0.000530	59.400000
	0.000421	59.500000
	0.000477	59.600000
	0.000382	59.700000
	0.000434	59.800000
	0.000471	59.900000
	0.000467	60.000000
	0.000533	60.100000
	0.000395	60.200000
	0.000438	60.300000
	0.000550	60.400000
	0.000451	60.500000
	0.000494	60.600000
	0.000560	60.700000
	0.000438	60.800000
	0.000451	60.900000
	0.000540	61.000000
	0.000477	61.100000
	0.000481	61.200000
	0.000606	61.300000
	0.000494	61.400000
	0.000467	61.500000
	0.000484	61.600000
	0.000560	61.700000
	0.000471	61.800000
	0.000458	61.900000
	0.000356	62.000000
	0.000405	62.100000
	0.000405	62.200000
	0.000448	62.300000
	0.000471	62.400000
	0.000461	62.500000
	0.000359	62.600000
	0.000487	62.700000
	0.000434	62.800000
	0.000477	62.900000
	0.000392	63.000000
	0.000385	63.100000
	0.000372	63.200000
	0.000464	63.300000
	0.000477	63.400000
	0.000438	63.500000
	0.000382	63.600000
	0.000388	63.700000
	0.000474	63.800000
	0.000405	63.900000
	0.000428	64.000000
	0.000428	64.100000
	0.000421	64.200000
	0.000405	64.300000
	0.000474	64.400000
	0.000543	64.500000
	0.000461	64.600000
	0.000425	64.700000
	0.000477	64.800000
	0.000411	64.900000
	0.000369	65.000000
	0.000388	65.100000
	0.000418	65.200000
	0.000632	65.300000
	0.000543	65.400000
	0.000596	65.500000
	0.000490	65.600000
	0.000425	65.700000
	0.000513	65.800000
	0.000336	65.900000
	0.000507	66.000000
	0.000405	66.100000
	0.000425	66.200000
	0.000471	66.300000
	0.000533	66.400000
	0.000119	66.500000
	6.267086E-5	66.600000
	1.660610E-5	66.700000
	0.000155	66.800000
	3.634814E-5	66.900000
	8.570323E-5	67.000000
	0.000428	67.100000
	0.000392	67.200000
	0.000431	67.300000
	0.000359	67.400000
	0.000359	67.500000
	0.000385	67.600000
	0.000388	67.700000
	0.000408	67.800000
	0.000352	67.900000
	0.000454	68.000000
	0.000487	68.100000
	0.000434	68.200000
	0.000461	68.300000
	0.000405	68.400000
	0.000500	68.500000
	0.000221	68.600000
	0.000181	68.700000
	0.000405	68.800000
	0.000392	68.900000
	0.000428	69.000000
	0.000458	69.100000
	0.000438	69.200000
	0.000441	69.300000
	0.000372	69.400000
	0.000326	69.500000
	0.000421	69.600000
	0.000431	69.700000
	0.000464	69.800000
	0.000490	69.900000
	0.000454	70.000000
	0.000408	70.100000
	0.000323	70.200000
	0.000316	70.300000
	0.000388	70.400000
	0.000451	70.500000
	0.000408	70.600000
	0.000411	70.700000
	0.000556	70.800000
	0.000467	70.900000
	0.000415	71.000000
	0.000428	71.100000
	0.000434	71.200000
	0.000448	71.300000
	0.000388	71.400000
	0.000375	71.500000
	0.000388	71.600000
	0.000379	71.700000
	0.000494	71.800000
	0.000365	71.900000
	0.000431	72.000000
	0.000500	72.100000
	5.609018E-5	72.200000
	0.000221	72.300000
	4.292882E-5	72.400000
	0.000349	72.500000
	0.000573	72.600000
	0.000527	72.700000
	0.000589	72.800000
	0.000576	72.900000
	0.000500	73.000000
	0.000523	73.100000
	0.000540	73.200000
	0.000326	73.300000
	5.609018E-5	73.400000
	1.331576E-5	73.500000
	0.000105	73.600000
	0.000158	73.700000
	0.000109	73.800000
	5.609018E-5	73.900000
	0.000115	74.000000
	0.000356	74.100000
	0.000431	74.200000
	0.000181	74.300000
	0.000161	74.400000
	7.583221E-5	74.500000
	7.254187E-5	74.600000
	0.000461	74.700000
	0.000546	74.800000
	0.000411	74.900000
	0.000497	75.000000
	0.000434	75.100000
	0.000431	75.200000
	0.000365	75.300000
	0.000411	75.400000
	0.000405	75.500000
	0.000507	75.600000
	0.000471	75.700000
	0.000428	75.800000
	0.000421	75.900000
	0.000481	76.000000
	0.000474	76.100000
	0.000135	76.200000
	0.000230	76.300000
	0.000148	76.400000
	0.000214	76.500000
	0.000494	76.600000
	0.000402	76.700000
	0.000438	76.800000
	0.000566	76.900000
	0.000500	77.000000
	0.000349	77.100000
	0.000467	77.200000
	0.000523	77.300000
	0.000382	77.400000
	0.000461	77.500000
	0.000454	77.600000
	0.000365	77.700000
	0.000365	77.800000
	0.000356	77.900000
	0.000329	78.000000
	0.000323	78.100000
	0.000300	78.200000
	0.000411	78.300000
	0.000286	78.400000
	0.000306	78.500000
	0.000448	78.600000
	0.000352	78.700000
	0.000388	78.800000
	0.000365	78.900000
	0.000408	79.000000
	0.000438	79.100000
	0.000290	79.200000
	0.000556	79.300000
	0.000507	79.400000
	0.000546	79.500000
	0.000513	79.600000
	0.000356	79.700000
	0.000313	79.800000
	0.000471	79.900000
	0.000421	80.000000
	0.000250	80.100000
	0.000329	80.200000
	0.000316	80.300000
	0.000467	80.400000
	0.000418	80.500000
	0.000398	80.600000
	0.000418	80.700000
	0.000438	80.800000
	0.000490	80.900000
	0.000438	81.000000
	0.000444	81.100000
	0.000415	81.200000
	0.000458	81.300000
	0.000451	81.400000
	0.000487	81.500000
	0.000510	81.600000
	0.000467	81.700000
	0.000395	81.800000
	5.938052E-5	81.900000
	0.000517	82.000000
	0.000536	82.100000
	0.000293	82.200000
	0.000464	82.300000
	0.000546	82.400000
	0.000290	82.500000
	0.000540	82.600000
	0.000125	82.700000
	9.557425E-5	82.800000
	0.000125	82.900000
	3.634814E-5	83.000000
	7.912255E-5	83.100000
	0.000411	83.200000
	0.000474	83.300000
	0.000484	83.400000
	0.000323	83.500000
	0.000517	83.600000
	0.000481	83.700000
	0.000464	83.800000
	0.000523	83.900000
	0.000484	84.000000
	0.000507	84.100000
	0.000573	84.200000
	0.000520	84.300000
	0.000425	84.400000
	0.000523	84.500000
	0.000606	84.600000
	0.000490	84.700000
	0.000510	84.800000
	0.000560	84.900000
	0.000638	85.000000
	0.000346	85.100000
	0.000411	85.200000
	0.000402	85.300000
	0.000487	85.400000
	0.000448	85.500000
	0.000398	85.600000
	0.000494	85.700000
	0.000438	85.800000
	0.000484	85.900000
	0.000444	86.000000
	0.000405	86.100000
	0.000415	86.200000
	0.000415	86.300000
	0.000326	86.400000
	0.000382	86.500000
	0.000319	86.600000
	0.000365	86.700000
	0.000346	86.800000
	0.000191	86.900000
	0.000382	87.000000
	0.000359	87.100000
	0.000346	87.200000
	0.000388	87.300000
	0.000411	87.400000
	0.000290	87.500000
	0.000214	87.600000
	0.000260	87.700000
	0.000362	87.800000
	0.000306	87.900000
	0.000254	88.000000
	0.000237	88.100000
	0.000283	88.200000
	0.000221	88.300000
	0.000273	88.400000
	0.000214	88.500000
	0.000267	88.600000
	0.000280	88.700000
	0.000145	88.800000
	0.000198	88.900000
	0.000194	89.000000
	0.000277	89.100000
	0.000273	89.200000
	0.000260	89.300000
	0.000267	89.400000
	0.000247	89.500000
	0.000260	89.600000
	0.000227	89.700000
	0.000250	89.800000
	0.000138	89.900000
	0.000227	90.000000
	0.000247	90.100000
	0.000280	90.200000
	0.000326	90.300000
	0.000181	90.400000
	0.000286	90.500000
	0.000434	90.600000
	0.000369	90.700000
	0.000313	90.800000
	0.000280	90.900000
	0.000316	91.000000
	0.000254	91.100000
	0.000316	91.200000
	0.000230	91.300000
	0.000244	91.400000
	0.000296	91.500000
	0.000277	91.600000
	0.000237	91.700000
	0.000227	91.800000
	0.000201	91.900000
	0.000128	92.000000
	0.000224	92.100000
	0.000125	92.200000
	0.000207	92.300000
	0.000211	92.400000
	0.000198	92.500000
	0.000188	92.600000
	0.000175	92.700000
	0.000224	92.800000
	0.000188	92.900000
	9.557425E-5	93.000000
	0.000221	93.100000
	0.000138	93.200000
	0.000191	93.300000
	0.000204	93.400000
	0.000204	93.500000
	0.000240	93.600000
	0.000267	93.700000
	0.000158	93.800000
	0.000105	93.900000
	0.000122	94.000000
	0.000152	94.100000
	0.000122	94.200000
	0.000165	94.300000
	0.000125	94.400000
	4.950950E-5	94.500000
	0.000214	94.600000
	0.000290	94.700000
	0.000191	94.800000
	0.000181	94.900000
	0.000152	95.000000
	0.000132	95.100000
	0.000224	95.200000
	0.000211	95.300000
	0.000217	95.400000
	0.000181	95.500000
	0.000286	95.600000
	0.000277	95.700000
	0.000303	95.800000
	0.000359	95.900000
	0.000280	96.000000
	0.000349	96.100000
	0.000293	96.200000
	0.000323	96.300000
	0.000161	96.400000
	0.000372	96.500000
	0.000319	96.600000
	0.000230	96.700000
	0.000207	96.800000
	0.000128	96.900000
	0.000184	97.000000
	0.000207	97.100000
	0.000198	97.200000
	0.000217	97.300000
	0.000290	97.400000
	0.000283	97.500000
	0.000267	97.600000
	0.000240	97.700000
	0.000184	97.800000
	7.583221E-5	97.900000
	0.000125	98.000000
	0.000128	98.100000
	0.000105	98.200000
	0.000306	98.300000
	0.000260	98.400000
	0.000237	98.500000
	0.000263	98.600000
	0.000260	98.700000
	0.000290	98.800000
	0.000300	98.900000
	0.000352	99.000000
	0.000283	99.100000
	0.000250	99.200000
	0.000244	99.300000
	0.000290	99.400000
	0.000214	99.500000
	0.000244	99.600000
	0.000303	99.700000
	0.000260	99.800000
	0.000283	99.900000

