LabVIEW Measurement	
Writer_Version	2
Reader_Version	2
Separator	Tab
Decimal_Separator	.
Multi_Headings	Yes
X_Columns	No
Time_Pref	Relative
Operator	stud40
Date	2023/03/21
Time	18:29:53.7271432876586914063
***End_of_Header***	
	
Channels	2		
Samples	1000	1000	
Date	2023/03/21	2023/03/21	
Time	18:29:53.7271432876586914063	18:29:53.7271432876586914063	
X_Dimension	Time	Time	
X0	0.0000000000000000E+0	0.0000000000000000E+0	
Delta_X	1.000000	1.000000	
***End_of_Header***			
X_Value	Untitled	Untitled 1	Comment
	0.245545	0.000000
	0.247588	0.100000
	0.245035	0.200000
	0.247819	0.300000
	0.245779	0.400000
	0.245351	0.500000
	0.245305	0.600000
	0.247078	0.700000
	0.246996	0.800000
	0.243660	0.900000
	0.239096	1.000000
	0.237997	1.100000
	0.240978	1.200000
	0.240603	1.300000
	0.237717	1.400000
	0.241426	1.500000
	0.236256	1.600000
	0.238303	1.700000
	0.235167	1.800000
	0.234414	1.900000
	0.237471	2.000000
	0.235151	2.100000
	0.235233	2.200000
	0.235529	2.300000
	0.236855	2.400000
	0.236526	2.500000
	0.235815	2.600000
	0.234187	2.700000
	0.236312	2.800000
	0.235569	2.900000
	0.235082	3.000000
	0.234605	3.100000
	0.234160	3.200000
	0.234226	3.300000
	0.233812	3.400000
	0.235891	3.500000
	0.237625	3.600000
	0.236951	3.700000
	0.232601	3.800000
	0.235440	3.900000
	0.235325	4.000000
	0.235842	4.100000
	0.237438	4.200000
	0.234220	4.300000
	0.236523	4.400000
	0.237438	4.500000
	0.234595	4.600000
	0.235924	4.700000
	0.237704	4.800000
	0.234407	4.900000
	0.235937	5.000000
	0.235065	5.100000
	0.232841	5.200000
	0.234723	5.300000
	0.233509	5.400000
	0.233838	5.500000
	0.232245	5.600000
	0.234766	5.700000
	0.234243	5.800000
	0.232367	5.900000
	0.234805	6.000000
	0.233641	6.100000
	0.235960	6.200000
	0.234019	6.300000
	0.232456	6.400000
	0.234062	6.500000
	0.232091	6.600000
	0.231726	6.700000
	0.232825	6.800000
	0.234559	6.900000
	0.236148	7.000000
	0.234183	7.100000
	0.233960	7.200000
	0.234536	7.300000
	0.232811	7.400000
	0.234516	7.500000
	0.232107	7.600000
	0.233792	7.700000
	0.232910	7.800000
	0.233924	7.900000
	0.234072	8.000000
	0.232203	8.100000
	0.233042	8.200000
	0.232157	8.300000
	0.232979	8.400000
	0.234572	8.500000
	0.235796	8.600000
	0.234503	8.700000
	0.237089	8.800000
	0.234035	8.900000
	0.232463	9.000000
	0.233348	9.100000
	0.232676	9.200000
	0.234582	9.300000
	0.234137	9.400000
	0.233423	9.500000
	0.235190	9.600000
	0.234088	9.700000
	0.232660	9.800000
	0.233874	9.900000
	0.232472	10.000000
	0.233588	10.100000
	0.232650	10.200000
	0.230554	10.300000
	0.234216	10.400000
	0.231660	10.500000
	0.233752	10.600000
	0.234348	10.700000
	0.234134	10.800000
	0.232828	10.900000
	0.233282	11.000000
	0.233644	11.100000
	0.236125	11.200000
	0.234703	11.300000
	0.233657	11.400000
	0.233815	11.500000
	0.234262	11.600000
	0.233387	11.700000
	0.235361	11.800000
	0.232318	11.900000
	0.234717	12.000000
	0.233200	12.100000
	0.233697	12.200000
	0.231726	12.300000
	0.231015	12.400000
	0.235023	12.500000
	0.235431	12.600000
	0.232331	12.700000
	0.231074	12.800000
	0.230344	12.900000
	0.232969	13.000000
	0.231176	13.100000
	0.228169	13.200000
	0.228422	13.300000
	0.229561	13.400000
	0.228221	13.500000
	0.226487	13.600000
	0.225862	13.700000
	0.223727	13.800000
	0.222858	13.900000
	0.225056	14.000000
	0.221904	14.100000
	0.220742	14.200000
	0.220381	14.300000
	0.219627	14.400000
	0.220552	14.500000
	0.218521	14.600000
	0.218689	14.700000
	0.218949	14.800000
	0.216235	14.900000
	0.216475	15.000000
	0.215132	15.100000
	0.215159	15.200000
	0.213514	15.300000
	0.212319	15.400000
	0.212253	15.500000
	0.210171	15.600000
	0.209582	15.700000
	0.209568	15.800000
	0.209693	15.900000
	0.209572	16.000000
	0.207305	16.100000
	0.208134	16.200000
	0.204896	16.300000
	0.204745	16.400000
	0.205031	16.500000
	0.202247	16.600000
	0.202665	16.700000
	0.203281	16.800000
	0.204060	16.900000
	0.202971	17.000000
	0.203050	17.100000
	0.200754	17.200000
	0.199329	17.300000
	0.200764	17.400000
	0.200974	17.500000
	0.202113	17.600000
	0.200145	17.700000
	0.202823	17.800000
	0.204182	17.900000
	0.201073	18.000000
	0.203063	18.100000
	0.203804	18.200000
	0.203129	18.300000
	0.202764	18.400000
	0.204077	18.500000
	0.203600	18.600000
	0.203320	18.700000
	0.201316	18.800000
	0.202448	18.900000
	0.202175	19.000000
	0.200257	19.100000
	0.200313	19.200000
	0.201119	19.300000
	0.200573	19.400000
	0.202001	19.500000
	0.199951	19.600000
	0.203777	19.700000
	0.204682	19.800000
	0.202767	19.900000
	0.203014	20.000000
	0.202817	20.100000
	0.202168	20.200000
	0.203340	20.300000
	0.202326	20.400000
	0.199938	20.500000
	0.200043	20.600000
	0.199217	20.700000
	0.198322	20.800000
	0.197486	20.900000
	0.196555	21.000000
	0.197210	21.100000
	0.195765	21.200000
	0.194880	21.300000
	0.193071	21.400000
	0.191857	21.500000
	0.190787	21.600000
	0.195048	21.700000
	0.193225	21.800000
	0.193104	21.900000
	0.191307	22.000000
	0.195111	22.100000
	0.191554	22.200000
	0.191646	22.300000
	0.192344	22.400000
	0.189747	22.500000
	0.192534	22.600000
	0.191014	22.700000
	0.188530	22.800000
	0.188096	22.900000
	0.186911	23.000000
	0.185611	23.100000
	0.184693	23.200000
	0.183532	23.300000
	0.182548	23.400000
	0.181541	23.500000
	0.180966	23.600000
	0.181100	23.700000
	0.179906	23.800000
	0.179899	23.900000
	0.178254	24.000000
	0.179959	24.100000
	0.179771	24.200000
	0.181726	24.300000
	0.180413	24.400000
	0.179797	24.500000
	0.181028	24.600000
	0.181051	24.700000
	0.180765	24.800000
	0.180100	24.900000
	0.178820	25.000000
	0.175879	25.100000
	0.176691	25.200000
	0.180205	25.300000
	0.184328	25.400000
	0.184457	25.500000
	0.184888	25.600000
	0.183502	25.700000
	0.182805	25.800000
	0.182963	25.900000
	0.182673	26.000000
	0.186121	26.100000
	0.183298	26.200000
	0.183627	26.300000
	0.185825	26.400000
	0.183641	26.500000
	0.182400	26.600000
	0.185177	26.700000
	0.184453	26.800000
	0.188777	26.900000
	0.184795	27.000000
	0.187464	27.100000
	0.184819	27.200000
	0.188922	27.300000
	0.186766	27.400000
	0.186812	27.500000
	0.187053	27.600000
	0.188102	27.700000
	0.189287	27.800000
	0.186302	27.900000
	0.187816	28.000000
	0.184934	28.100000
	0.186701	28.200000
	0.185957	28.300000
	0.185407	28.400000
	0.187474	28.500000
	0.187369	28.600000
	0.186556	28.700000
	0.186796	28.800000
	0.187322	28.900000
	0.188820	29.000000
	0.186398	29.100000
	0.187533	29.200000
	0.187536	29.300000
	0.188810	29.400000
	0.189576	29.500000
	0.190070	29.600000
	0.188020	29.700000
	0.189267	29.800000
	0.187474	29.900000
	0.185799	30.000000
	0.188138	30.100000
	0.188688	30.200000
	0.185763	30.300000
	0.185885	30.400000
	0.187563	30.500000
	0.187773	30.600000
	0.187573	30.700000
	0.186375	30.800000
	0.186349	30.900000
	0.187283	31.000000
	0.186901	31.100000
	0.185519	31.200000
	0.187138	31.300000
	0.187039	31.400000
	0.187141	31.500000
	0.186510	31.600000
	0.188560	31.700000
	0.185473	31.800000
	0.187059	31.900000
	0.186520	32.000000
	0.188102	32.100000
	0.186023	32.200000
	0.188978	32.300000
	0.188020	32.400000
	0.188125	32.500000
	0.186510	32.600000
	0.185352	32.700000
	0.187596	32.800000
	0.186576	32.900000
	0.185967	33.000000
	0.184743	33.100000
	0.188352	33.200000
	0.184598	33.300000
	0.184387	33.400000
	0.185700	33.500000
	0.186980	33.600000
	0.182772	33.700000
	0.187109	33.800000
	0.185865	33.900000
	0.187260	34.000000
	0.185871	34.100000
	0.186717	34.200000
	0.184539	34.300000
	0.187365	34.400000
	0.184285	34.500000
	0.186302	34.600000
	0.187826	34.700000
	0.184338	34.800000
	0.187836	34.900000
	0.187217	35.000000
	0.185664	35.100000
	0.186997	35.200000
	0.188468	35.300000
	0.186362	35.400000
	0.189290	35.500000
	0.188040	35.600000
	0.189165	35.700000
	0.190455	35.800000
	0.187780	35.900000
	0.188797	36.000000
	0.190238	36.100000
	0.188385	36.200000
	0.186230	36.300000
	0.187352	36.400000
	0.189297	36.500000
	0.189063	36.600000
	0.188583	36.700000
	0.189774	36.800000
	0.187530	36.900000
	0.188872	37.000000
	0.190702	37.100000
	0.189369	37.200000
	0.191333	37.300000
	0.188606	37.400000
	0.191616	37.500000
	0.191422	37.600000
	0.192228	37.700000
	0.191034	37.800000
	0.193028	37.900000
	0.193150	38.000000
	0.191978	38.100000
	0.193577	38.200000
	0.192531	38.300000
	0.192538	38.400000
	0.193864	38.500000
	0.195157	38.600000
	0.193150	38.700000
	0.195894	38.800000
	0.195331	38.900000
	0.195515	39.000000
	0.195002	39.100000
	0.195410	39.200000
	0.194282	39.300000
	0.193591	39.400000
	0.194634	39.500000
	0.194430	39.600000
	0.190777	39.700000
	0.194387	39.800000
	0.193623	39.900000
	0.191820	40.000000
	0.189971	40.100000
	0.191070	40.200000
	0.190534	40.300000
	0.188964	40.400000
	0.190646	40.500000
	0.193275	40.600000
	0.189800	40.700000
	0.190083	40.800000
	0.189297	40.900000
	0.190109	41.000000
	0.190823	41.100000
	0.191116	41.200000
	0.188507	41.300000
	0.189912	41.400000
	0.190919	41.500000
	0.191488	41.600000
	0.190705	41.700000
	0.190438	41.800000
	0.191557	41.900000
	0.191801	42.000000
	0.191254	42.100000
	0.192873	42.200000
	0.190633	42.300000
	0.191445	42.400000
	0.190142	42.500000
	0.193308	42.600000
	0.194430	42.700000
	0.193229	42.800000
	0.191850	42.900000
	0.191258	43.000000
	0.191175	43.100000
	0.191287	43.200000
	0.191366	43.300000
	0.190425	43.400000
	0.192728	43.500000
	0.194949	43.600000
	0.191258	43.700000
	0.191630	43.800000
	0.191570	43.900000
	0.192459	44.000000
	0.191419	44.100000
	0.190787	44.200000
	0.191883	44.300000
	0.193238	44.400000
	0.193160	44.500000
	0.194996	44.600000
	0.190586	44.700000
	0.193923	44.800000
	0.193321	44.900000
	0.193906	45.000000
	0.196312	45.100000
	0.195943	45.200000
	0.194357	45.300000
	0.193676	45.400000
	0.192863	45.500000
	0.194815	45.600000
	0.196841	45.700000
	0.194150	45.800000
	0.195946	45.900000
	0.196911	46.000000
	0.194147	46.100000
	0.195055	46.200000
	0.196953	46.300000
	0.197013	46.400000
	0.197397	46.500000
	0.194999	46.600000
	0.196986	46.700000
	0.197131	46.800000
	0.196861	46.900000
	0.199997	47.000000
	0.195456	47.100000
	0.192827	47.200000
	0.197615	47.300000
	0.198388	47.400000
	0.196006	47.500000
	0.199964	47.600000
	0.200457	47.700000
	0.199480	47.800000
	0.202761	47.900000
	0.198687	48.000000
	0.200800	48.100000
	0.198000	48.200000
	0.202863	48.300000
	0.198789	48.400000
	0.200000	48.500000
	0.200694	48.600000
	0.199638	48.700000
	0.197829	48.800000
	0.199875	48.900000
	0.198677	49.000000
	0.200388	49.100000
	0.198585	49.200000
	0.198868	49.300000
	0.196634	49.400000
	0.196190	49.500000
	0.197618	49.600000
	0.195259	49.700000
	0.195874	49.800000
	0.198779	49.900000
	0.197332	50.000000
	0.196809	50.100000
	0.195950	50.200000
	0.195621	50.300000
	0.195331	50.400000
	0.193538	50.500000
	0.195946	50.600000
	0.195663	50.700000
	0.194275	50.800000
	0.196947	50.900000
	0.195571	51.000000
	0.197101	51.100000
	0.195506	51.200000
	0.195459	51.300000
	0.194624	51.400000
	0.195844	51.500000
	0.197769	51.600000
	0.197068	51.700000
	0.195690	51.800000
	0.198720	51.900000
	0.196759	52.000000
	0.200606	52.100000
	0.197661	52.200000
	0.199280	52.300000
	0.201556	52.400000
	0.204459	52.500000
	0.201767	52.600000
	0.200984	52.700000
	0.201172	52.800000
	0.198319	52.900000
	0.198579	53.000000
	0.201514	53.100000
	0.199875	53.200000
	0.200339	53.300000
	0.201612	53.400000
	0.201211	53.500000
	0.201665	53.600000
	0.203218	53.700000
	0.201642	53.800000
	0.200490	53.900000
	0.200757	54.000000
	0.199658	54.100000
	0.203188	54.200000
	0.201691	54.300000
	0.200316	54.400000
	0.205386	54.500000
	0.202501	54.600000
	0.205462	54.700000
	0.201079	54.800000
	0.203024	54.900000
	0.202965	55.000000
	0.203620	55.100000
	0.205709	55.200000
	0.204274	55.300000
	0.207950	55.400000
	0.202882	55.500000
	0.204070	55.600000
	0.204100	55.700000
	0.202968	55.800000
	0.202728	55.900000
	0.204472	56.000000
	0.203356	56.100000
	0.206235	56.200000
	0.204554	56.300000
	0.205712	56.400000
	0.204136	56.500000
	0.202211	56.600000
	0.203504	56.700000
	0.202998	56.800000
	0.202205	56.900000
	0.204847	57.000000
	0.204695	57.100000
	0.204840	57.200000
	0.202632	57.300000
	0.202909	57.400000
	0.203791	57.500000
	0.203508	57.600000
	0.201280	57.700000
	0.203195	57.800000
	0.203294	57.900000
	0.203416	58.000000
	0.203807	58.100000
	0.204330	58.200000
	0.205304	58.300000
	0.207371	58.400000
	0.203557	58.500000
	0.202882	58.600000
	0.203748	58.700000
	0.204008	58.800000
	0.203560	58.900000
	0.206298	59.000000
	0.203731	59.100000
	0.201201	59.200000
	0.202159	59.300000
	0.204337	59.400000
	0.202376	59.500000
	0.203439	59.600000
	0.204689	59.700000
	0.207884	59.800000
	0.204199	59.900000
	0.205742	60.000000
	0.203771	60.100000
	0.206005	60.200000
	0.207387	60.300000
	0.207575	60.400000
	0.206844	60.500000
	0.206035	60.600000
	0.205531	60.700000
	0.209243	60.800000
	0.208664	60.900000
	0.207535	61.000000
	0.207486	61.100000
	0.205518	61.200000
	0.208183	61.300000
	0.206860	61.400000
	0.206515	61.500000
	0.208861	61.600000
	0.205903	61.700000
	0.209670	61.800000
	0.207690	61.900000
	0.208627	62.000000
	0.208657	62.100000
	0.209269	62.200000
	0.208552	62.300000
	0.207466	62.400000
	0.208025	62.500000
	0.208496	62.600000
	0.207321	62.700000
	0.207341	62.800000
	0.208377	62.900000
	0.206021	63.000000
	0.209355	63.100000
	0.208460	63.200000
	0.210447	63.300000
	0.211454	63.400000
	0.209012	63.500000
	0.208641	63.600000
	0.208394	63.700000
	0.211543	63.800000
	0.208483	63.900000
	0.207907	64.000000
	0.208976	64.100000
	0.211855	64.200000
	0.208766	64.300000
	0.209779	64.400000
	0.210039	64.500000
	0.210592	64.600000
	0.209805	64.700000
	0.208242	64.800000
	0.208966	64.900000
	0.207433	65.000000
	0.209174	65.100000
	0.207466	65.200000
	0.206765	65.300000
	0.210082	65.400000
	0.210529	65.500000
	0.209345	65.600000
	0.208733	65.700000
	0.210342	65.800000
	0.209368	65.900000
	0.210809	66.000000
	0.209845	66.100000
	0.210371	66.200000
	0.212036	66.300000
	0.209924	66.400000
	0.210371	66.500000
	0.208604	66.600000
	0.209397	66.700000
	0.212760	66.800000
	0.208887	66.900000
	0.208841	67.000000
	0.208022	67.100000
	0.207913	67.200000
	0.207292	67.300000
	0.208489	67.400000
	0.208716	67.500000
	0.206541	67.600000
	0.206749	67.700000
	0.209108	67.800000
	0.207775	67.900000
	0.207765	68.000000
	0.207581	68.100000
	0.206489	68.200000
	0.208598	68.300000
	0.205311	68.400000
	0.205377	68.500000
	0.208749	68.600000
	0.207732	68.700000
	0.207232	68.800000
	0.208874	68.900000
	0.211118	69.000000
	0.209963	69.100000
	0.205462	69.200000
	0.211865	69.300000
	0.209924	69.400000
	0.209200	69.500000
	0.209407	69.600000
	0.205255	69.700000
	0.209707	69.800000
	0.209565	69.900000
	0.208706	70.000000
	0.209509	70.100000
	0.208469	70.200000
	0.207611	70.300000
	0.206939	70.400000
	0.208397	70.500000
	0.208644	70.600000
	0.209717	70.700000
	0.209644	70.800000
	0.210256	70.900000
	0.209486	71.000000
	0.212039	71.100000
	0.211039	71.200000
	0.211316	71.300000
	0.211635	71.400000
	0.208756	71.500000
	0.208782	71.600000
	0.210556	71.700000
	0.208680	71.800000
	0.209865	71.900000
	0.209996	72.000000
	0.206499	72.100000
	0.209552	72.200000
	0.209799	72.300000
	0.210700	72.400000
	0.210276	72.500000
	0.210881	72.600000
	0.209815	72.700000
	0.210845	72.800000
	0.211421	72.900000
	0.209865	73.000000
	0.212188	73.100000
	0.212809	73.200000
	0.211121	73.300000
	0.212987	73.400000
	0.213336	73.500000
	0.210072	73.600000
	0.212369	73.700000
	0.212247	73.800000
	0.211451	73.900000
	0.212118	74.000000
	0.212596	74.100000
	0.214310	74.200000
	0.212306	74.300000
	0.214451	74.400000
	0.211164	74.500000
	0.213642	74.600000
	0.211602	74.700000
	0.210753	74.800000
	0.212122	74.900000
	0.212424	75.000000
	0.212839	75.100000
	0.213326	75.200000
	0.214241	75.300000
	0.211266	75.400000
	0.213928	75.500000
	0.212911	75.600000
	0.213935	75.700000
	0.212770	75.800000
	0.214359	75.900000
	0.214405	76.000000
	0.214415	76.100000
	0.213280	76.200000
	0.213435	76.300000
	0.213263	76.400000
	0.212645	76.500000
	0.213296	76.600000
	0.213398	76.700000
	0.213359	76.800000
	0.213566	76.900000
	0.213086	77.000000
	0.215886	77.100000
	0.213958	77.200000
	0.212740	77.300000
	0.215429	77.400000
	0.216202	77.500000
	0.216389	77.600000
	0.214237	77.700000
	0.216001	77.800000
	0.214520	77.900000
	0.215814	78.000000
	0.214504	78.100000
	0.213905	78.200000
	0.215106	78.300000
	0.218597	78.400000
	0.215353	78.500000
	0.218768	78.600000
	0.221558	78.700000
	0.221272	78.800000
	0.220147	78.900000
	0.217995	79.000000
	0.217459	79.100000
	0.218031	79.200000
	0.218479	79.300000
	0.217439	79.400000
	0.220877	79.500000
	0.219597	79.600000
	0.221476	79.700000
	0.219956	79.800000
	0.220203	79.900000
	0.219285	80.000000
	0.218502	80.100000
	0.218801	80.200000
	0.218811	80.300000
	0.218489	80.400000
	0.218623	80.500000
	0.220157	80.600000
	0.218600	80.700000
	0.218916	80.800000
	0.218591	80.900000
	0.219308	81.000000
	0.216626	81.100000
	0.215567	81.200000
	0.217814	81.300000
	0.216827	81.400000
	0.218090	81.500000
	0.218531	81.600000
	0.217100	81.700000
	0.219170	81.800000
	0.218403	81.900000
	0.217186	82.000000
	0.220486	82.100000
	0.219262	82.200000
	0.217288	82.300000
	0.218706	82.400000
	0.217932	82.500000
	0.220242	82.600000
	0.218860	82.700000
	0.217778	82.800000
	0.220719	82.900000
	0.221111	83.000000
	0.220789	83.100000
	0.218877	83.200000
	0.219663	83.300000
	0.218788	83.400000
	0.222180	83.500000
	0.219696	83.600000
	0.221384	83.700000
	0.222526	83.800000
	0.221934	83.900000
	0.219410	84.000000
	0.221496	84.100000
	0.221664	84.200000
	0.222562	84.300000
	0.220716	84.400000
	0.220463	84.500000
	0.221249	84.600000
	0.219594	84.700000
	0.218324	84.800000
	0.217936	84.900000
	0.222618	85.000000
	0.219344	85.100000
	0.219439	85.200000
	0.221022	85.300000
	0.221874	85.400000
	0.219782	85.500000
	0.221197	85.600000
	0.217824	85.700000
	0.218061	85.800000
	0.215962	85.900000
	0.213629	86.000000
	0.216511	86.100000
	0.217034	86.200000
	0.216034	86.300000
	0.214935	86.400000
	0.214770	86.500000
	0.216057	86.600000
	0.217120	86.700000
	0.218686	86.800000
	0.220048	86.900000
	0.223121	87.000000
	0.222898	87.100000
	0.222786	87.200000
	0.224507	87.300000
	0.223200	87.400000
	0.222983	87.500000
	0.223289	87.600000
	0.223967	87.700000
	0.222105	87.800000
	0.223477	87.900000
	0.221183	88.000000
	0.221920	88.100000
	0.220719	88.200000
	0.221792	88.300000
	0.221210	88.400000
	0.219018	88.500000
	0.221868	88.600000
	0.219959	88.700000
	0.220976	88.800000
	0.221035	88.900000
	0.220252	89.000000
	0.220894	89.100000
	0.220733	89.200000
	0.217551	89.300000
	0.220015	89.400000
	0.221305	89.500000
	0.222838	89.600000
	0.220394	89.700000
	0.220496	89.800000
	0.221252	89.900000
	0.220436	90.000000
	0.219387	90.100000
	0.217827	90.200000
	0.219018	90.300000
	0.217883	90.400000
	0.219466	90.500000
	0.221611	90.600000
	0.217126	90.700000
	0.218360	90.800000
	0.218262	90.900000
	0.219653	91.000000
	0.222187	91.100000
	0.221252	91.200000
	0.220127	91.300000
	0.220298	91.400000
	0.222740	91.500000
	0.221901	91.600000
	0.219979	91.700000
	0.220979	91.800000
	0.219492	91.900000
	0.219765	92.000000
	0.218508	92.100000
	0.222539	92.200000
	0.222792	92.300000
	0.220779	92.400000
	0.221322	92.500000
	0.218768	92.600000
	0.221256	92.700000
	0.219690	92.800000
	0.219591	92.900000
	0.221331	93.000000
	0.222272	93.100000
	0.221193	93.200000
	0.219709	93.300000
	0.218268	93.400000
	0.220512	93.500000
	0.220772	93.600000
	0.219630	93.700000
	0.219245	93.800000
	0.219545	93.900000
	0.217518	94.000000
	0.218893	94.100000
	0.218798	94.200000
	0.220190	94.300000
	0.221809	94.400000
	0.221841	94.500000
	0.221973	94.600000
	0.221210	94.700000
	0.220894	94.800000
	0.221664	94.900000
	0.221772	95.000000
	0.221236	95.100000
	0.220617	95.200000
	0.220953	95.300000
	0.220302	95.400000
	0.220499	95.500000
	0.221509	95.600000
	0.220213	95.700000
	0.221341	95.800000
	0.223115	95.900000
	0.223391	96.000000
	0.221845	96.100000
	0.220943	96.200000
	0.224770	96.300000
	0.223167	96.400000
	0.220640	96.500000
	0.220433	96.600000
	0.219110	96.700000
	0.222621	96.800000
	0.222901	96.900000
	0.221799	97.000000
	0.222730	97.100000
	0.222687	97.200000
	0.221088	97.300000
	0.222184	97.400000
	0.226724	97.500000
	0.225017	97.600000
	0.225961	97.700000
	0.227221	97.800000
	0.223865	97.900000
	0.224579	98.000000
	0.224033	98.100000
	0.223431	98.200000
	0.226316	98.300000
	0.223095	98.400000
	0.226497	98.500000
	0.224707	98.600000
	0.226777	98.700000
	0.229544	98.800000
	0.230673	98.900000
	0.230406	99.000000
	0.230465	99.100000
	0.232838	99.200000
	0.231587	99.300000
	0.229528	99.400000
	0.230551	99.500000
	0.231831	99.600000
	0.231393	99.700000
	0.231232	99.800000
	0.229541	99.900000

