LabVIEW Measurement	
Writer_Version	2
Reader_Version	2
Separator	Tab
Decimal_Separator	.
Multi_Headings	Yes
X_Columns	No
Time_Pref	Relative
Operator	stud40
Date	2023/03/21
Time	18:46:09.7756772041320800781
***End_of_Header***	
	
Channels	4				
Samples	1000	1000	1000	1000	
Date	2023/03/21	2023/03/21	2023/03/21	2023/03/21	
Time	18:46:09.7756772041320800781	18:46:09.7756772041320800781	18:46:09.7756772041320800781	18:46:09.7756772041320800781	
X_Dimension	Time	Time	Time	Time	
X0	0.0000000000000000E+0	0.0000000000000000E+0	0.0000000000000000E+0	0.0000000000000000E+0	
Delta_X	1.000000	1.000000	1.000000	1.000000	
***End_of_Header***					
X_Value	Untitled	Untitled 1	Untitled 2	Untitled 3	Comment
	0.000510	0.000000	3.303199E-5	-0.286684
	0.000148	0.100000	-1.523744E-5	-0.294963
	9.228391E-5	0.200000	1.259005E-5	-0.303433
	9.557425E-5	0.300000	1.819504E-5	-0.311854
	0.000362	0.400000	-1.985349E-5	-0.321415
	0.000615	0.500000	-1.470989E-5	-0.328263
	0.000606	0.600000	6.231040E-5	-0.338502
	0.000428	0.700000	2.742698E-5	-0.345803
	0.000175	0.800000	1.786531E-5	-0.349884
	0.000306	0.900000	4.978110E-5	-0.363953
	0.000250	1.000000	1.390899E-5	-0.368601
	0.000329	1.100000	5.666166E-6	-0.378219
	0.000365	1.200000	-1.405038E-5	-0.382796
	0.000254	1.300000	5.241908E-5	-0.392518
	0.000178	1.400000	3.421891E-5	-0.397357
	0.000309	1.500000	5.327609E-5	-0.405341
	0.000240	1.600000	4.318701E-5	-0.413865
	0.000247	1.700000	2.887782E-5	-0.420473
	0.000260	1.800000	-5.675895E-6	-0.427223
	0.000221	1.900000	5.797942E-6	-0.434941
	0.000296	2.000000	4.259356E-5	-0.439779
	0.000326	2.100000	6.127641E-6	-0.447288
	0.000309	2.200000	2.769079E-5	-0.454719
	0.000267	2.300000	4.568023E-7	-0.459187
	0.000273	2.400000	-1.299539E-5	-0.465335
	0.000191	2.500000	4.101112E-5	-0.470057
	0.000352	2.600000	5.499060E-5	-0.477644
	0.000382	2.700000	3.975802E-5	-0.483507
	0.000339	2.800000	3.290000E-5	-0.487372
	0.000267	2.900000	1.973384E-6	-0.493286
	0.000198	3.000000	1.707418E-5	-0.499776
	0.000339	3.100000	3.059207E-5	-0.505178
	0.000260	3.200000	1.364511E-5	-0.510546
	0.000326	3.300000	2.171307E-6	-0.513610
	0.000306	3.400000	-5.543975E-6	-0.519052
	0.000306	3.500000	3.448266E-5	-0.526216
	0.000332	3.600000	5.545227E-5	-0.529698
	0.000349	3.700000	2.538274E-5	-0.533762
	0.000356	3.800000	-7.785937E-6	-0.537958
	0.000263	3.900000	3.586743E-5	-0.541527
	0.000336	4.000000	-1.587308E-6	-0.548471
	0.000296	4.100000	1.153495E-5	-0.551736
	0.000306	4.200000	2.010729E-5	-0.556858
	0.000250	4.300000	3.283421E-5	-0.558256
	0.000257	4.400000	2.353619E-5	-0.565314
	0.000319	4.500000	5.024294E-5	-0.565654
	0.000332	4.600000	4.556094E-5	-0.570109
	0.000194	4.700000	4.305515E-5	-0.575122
	0.000221	4.800000	1.305154E-5	-0.577940
	0.000303	4.900000	3.454860E-5	-0.579436
	0.000201	5.000000	-2.246780E-6	-0.584102
	0.000221	5.100000	-3.697592E-6	-0.584601
	0.000244	5.200000	2.788838E-5	-0.586468
	0.000339	5.300000	1.270442E-7	-0.587995
	0.000138	5.400000	3.226482E-6	-0.590710
	0.000138	5.500000	-1.002779E-5	-0.594765
	0.000230	5.600000	1.799705E-5	-0.598395
	0.000217	5.700000	2.070087E-5	-0.599273
	0.000194	5.800000	1.298557E-5	-0.600097
	0.000191	5.900000	1.928135E-7	-0.602433
	0.000207	6.000000	3.646097E-5	-0.604658
	0.000198	6.100000	-4.159195E-6	-0.607386
	0.000211	6.200000	4.694545E-5	-0.608093
	0.000138	6.300000	-1.424794E-5	-0.610147
	0.000161	6.400000	-3.236019E-6	-0.612013
	0.000306	6.500000	-6.532908E-6	-0.610820
	0.000184	6.600000	-1.708356E-5	-0.611071
	0.000234	6.700000	1.160109E-5	-0.614553
	0.000198	6.800000	2.103043E-5	-0.616109
	0.000227	6.900000	3.013067E-5	-0.617479
	0.000224	7.000000	6.587127E-5	-0.617332
	0.000323	7.100000	2.004159E-5	-0.617974
	0.000250	7.200000	4.226386E-5	-0.618753
	0.000201	7.300000	-1.332490E-5	-0.618813
	0.000250	7.400000	-2.994224E-5	-0.612975
	0.000221	7.500000	2.551478E-5	-0.612372
	0.000161	7.600000	-1.259984E-5	-0.613109
	0.000211	7.700000	-3.633893E-5	-0.613446
	0.000309	7.800000	5.103427E-5	-0.609620
	0.000329	7.900000	2.333879E-5	-0.611209
	0.000359	8.000000	2.050276E-5	-0.610653
	0.000428	8.100000	3.751559E-5	-0.612680
	0.000273	8.200000	3.797777E-5	-0.612113
	0.000385	8.300000	3.342741E-5	-0.610722
	0.000326	8.400000	5.624338E-5	-0.610417
	0.000300	8.500000	6.457254E-6	-0.608730
	0.000369	8.600000	-3.178887E-5	-0.611183
	0.000303	8.700000	5.545198E-5	-0.608904
	0.000339	8.800000	-2.479900E-5	-0.615688
	0.000250	8.900000	1.516161E-5	-0.614087
	0.000161	9.000000	8.369561E-6	-0.614560
	0.000138	9.100000	2.544888E-5	-0.617739
	0.000313	9.200000	1.535953E-5	-0.619965
	0.000263	9.300000	-5.675768E-6	-0.620169
	0.000214	9.400000	2.347061E-5	-0.619086
	0.000270	9.500000	7.446581E-6	-0.617944
	0.000254	9.600000	5.558396E-5	-0.616597
	0.000240	9.700000	1.648064E-5	-0.615381
	0.000201	9.800000	-3.433687E-6	-0.614306
	0.000234	9.900000	4.285740E-5	-0.615753
	9.432173	10.000000	5.828769E-5	-0.613200
	10.005231	10.100000	4.008760E-5	-0.611241
	10.003185	10.200000	7.116779E-6	-0.610964
	10.003254	10.300000	2.597626E-5	-0.609921
	10.003320	10.400000	2.347071E-5	-0.608503
	10.003316	10.500000	1.364507E-5	-0.607534
	10.003109	10.600000	4.391241E-5	-0.608480
	10.002889	10.700000	6.804717E-5	-0.606150
	10.003007	10.800000	3.876907E-5	-0.607909
	10.003001	10.900000	2.986691E-5	-0.608440
	2.981021	11.000000	2.587625E-7	-0.607179
	0.000856	11.100000	3.929650E-5	-0.605283
	4.621916E-5	11.200000	6.204685E-5	-0.605240
	2.647712E-5	11.300000	5.261678E-5	-0.602390
	0.000306	11.400000	2.940522E-5	-0.604966
	0.000300	11.500000	-6.269270E-6	-0.601093
	0.000346	11.600000	1.272207E-5	-0.601092
	0.000296	11.700000	2.056900E-5	-0.600836
	0.000356	11.800000	1.463420E-5	-0.599093
	0.000332	11.900000	3.160441E-6	-0.596645
	0.000415	12.000000	5.413354E-5	-0.596194
	0.000346	12.100000	-4.950459E-6	-0.596353
	0.000431	12.200000	1.575541E-5	-0.594291
	0.000336	12.300000	1.034836E-5	-0.595893
	0.000438	12.400000	-1.853449E-5	-0.592061
	0.000484	12.500000	1.971189E-5	-0.591952
	0.000421	12.600000	3.309811E-5	-0.591957
	0.000342	12.700000	-1.978730E-5	-0.589817
	0.000332	12.800000	-7.851746E-6	-0.588517
	0.000385	12.900000	6.962988E-5	-0.588034
	0.000319	13.000000	1.445923E-6	-0.588924
	0.000339	13.100000	1.351307E-5	-0.588255
	0.000375	13.200000	4.608859E-5	-0.587235
	0.000392	13.300000	-2.687616E-7	-0.586668
	0.000464	13.400000	5.204536E-6	-0.587395
	0.000454	13.500000	-2.915106E-5	-0.586033
	0.000273	13.600000	3.995589E-5	-0.587629
	0.000372	13.700000	2.017331E-5	-0.586830
	0.000477	13.800000	3.797749E-5	-0.585746
	0.000444	13.900000	-1.253408E-5	-0.587181
	0.000415	14.000000	-7.126588E-6	-0.586929
	0.000395	14.100000	6.919109E-6	-0.585051
	0.000461	14.200000	4.892407E-5	-0.585586
	0.000523	14.300000	2.821839E-5	-0.583332
	0.000454	14.400000	4.793489E-5	-0.587161
	0.000464	14.500000	2.175583E-5	-0.584336
	0.000421	14.600000	5.551840E-5	-0.584734
	0.000428	14.700000	3.257043E-5	-0.585180
	0.000481	14.800000	1.232628E-5	-0.584393
	0.000530	14.900000	3.428472E-5	-0.584200
	0.000500	15.000000	1.892039E-5	-0.582644
	0.000477	15.100000	2.327280E-5	-0.584022
	0.000553	15.200000	-0.000117	-0.583240
	0.000464	15.300000	-5.148234E-6	-0.583782
	0.000451	15.400000	-7.060591E-6	-0.582327
	0.000536	15.500000	-1.653373E-6	-0.580781
	0.000402	15.600000	-1.708385E-5	-0.581685
	0.000362	15.700000	-7.324281E-6	-0.582992
	0.000336	15.800000	1.173300E-5	-0.585281
	0.000379	15.900000	-2.328216E-5	-0.582264
	0.000349	16.000000	2.933941E-5	-0.582193
	0.000280	16.100000	1.872253E-5	-0.582396
	0.000365	16.200000	4.628631E-5	-0.580707
	0.000388	16.300000	2.973485E-5	-0.580455
	0.000326	16.400000	2.953706E-5	-0.580871
	0.000332	16.500000	4.470382E-5	-0.580048
	0.000385	16.600000	6.626691E-5	-0.577755
	0.000303	16.700000	-2.624987E-5	-0.578351
	0.000352	16.800000	2.920769E-5	-0.575131
	0.000293	16.900000	-9.632176E-6	-0.576551
	0.000352	17.000000	3.388932E-5	-0.574419
	0.000382	17.100000	3.573578E-5	-0.575116
	0.000467	17.200000	1.522796E-5	-0.575296
	0.000474	17.300000	2.841613E-5	-0.574539
	0.000490	17.400000	3.619713E-5	-0.571205
	0.000395	17.500000	3.342764E-5	-0.570269
	0.000398	17.600000	5.571626E-5	-0.570163
	0.000369	17.700000	5.090231E-5	-0.569910
	0.000349	17.800000	1.193082E-5	-0.567836
	0.000375	17.900000	3.692274E-5	-0.566945
	0.000451	18.000000	3.771410E-5	-0.566407
	0.000283	18.100000	2.940521E-5	-0.565686
	0.000431	18.200000	2.624008E-5	-0.563116
	0.000536	18.300000	4.874963E-6	-0.565234
	0.000388	18.400000	-5.321867E-7	-0.562991
	0.000533	18.500000	1.305183E-5	-0.563674
	0.000425	18.600000	1.265603E-5	-0.559233
	0.000369	18.700000	-7.918051E-6	-0.557750
	0.000356	18.800000	7.710390E-6	-0.557773
	0.000362	18.900000	-4.686614E-6	-0.558091
	0.000392	19.000000	6.457560E-6	-0.555895
	0.000415	19.100000	6.798134E-5	-0.553553
	0.000418	19.200000	-2.576537E-6	-0.552160
	0.000467	19.300000	5.090243E-5	-0.551471
	0.000461	19.400000	-1.978712E-5	-0.549749
	0.000421	19.500000	1.971197E-5	-0.548458
	0.000323	19.600000	1.314011E-6	-0.546124
	0.000388	19.700000	4.206605E-5	-0.545602
	0.000481	19.800000	2.030526E-5	-0.544863
	0.000398	19.900000	7.206865E-7	-0.544393
	0.000431	20.000000	2.281120E-5	-0.542151
	0.000434	20.100000	1.450249E-5	-0.540322
	0.000517	20.200000	1.951402E-5	-0.539730
	0.000451	20.300000	1.608519E-5	-0.537519
	0.000507	20.400000	-4.291140E-6	-0.537448
	0.000408	20.500000	-1.141269E-5	-0.538036
	0.000484	20.600000	-9.764164E-6	-0.534657
	0.000408	20.700000	8.524594E-7	-0.532871
	0.000411	20.800000	8.699519E-6	-0.531416
	0.000161	20.900000	2.676757E-5	-0.532008
	0.000523	21.000000	4.417635E-5	-0.528028
	0.000461	21.100000	4.114289E-5	-0.528197
	0.000602	21.200000	1.371121E-5	-0.526883
	0.000527	21.300000	1.720590E-5	-0.527141
	0.000418	21.400000	1.806339E-5	-0.524496
	0.000467	21.500000	2.050315E-5	-0.522505
	0.000490	21.600000	1.542563E-5	-0.520820
	0.000536	21.700000	4.127466E-5	-0.517401
	0.000148	21.800000	7.710425E-6	-0.515987
	0.000563	21.900000	6.765164E-5	-0.516799
	0.000560	22.000000	3.322994E-5	-0.516277
	0.000461	22.100000	1.001850E-5	-0.513799
	0.000566	22.200000	3.171324E-5	-0.511925
	0.000504	22.300000	2.617407E-5	-0.508657
	0.000494	22.400000	1.061217E-5	-0.509297
	0.000550	22.500000	1.760172E-5	-0.504741
	0.000589	22.600000	-1.306095E-5	-0.506109
	0.000500	22.700000	6.061780E-6	-0.502020
	0.000487	22.800000	7.512630E-6	-0.500590
	0.000599	22.900000	4.727565E-5	-0.500406
	0.000583	23.000000	5.070434E-5	-0.499127
	0.000569	23.100000	1.714016E-5	-0.497416
	0.000158	23.200000	3.028570E-6	-0.495699
	0.000135	23.300000	2.729490E-5	-0.494508
	4.950950E-5	23.400000	3.863717E-5	-0.494745
	7.583221E-5	23.500000	5.228708E-5	-0.490625
	0.000257	23.600000	3.415312E-5	-0.488952
	0.000464	23.700000	-4.663781E-7	-0.486196
	0.000536	23.800000	5.386978E-5	-0.484364
	0.000425	23.900000	1.021621E-5	-0.483019
	0.000415	24.000000	1.577860E-6	-0.481402
	0.000461	24.100000	1.390880E-5	-0.480748
	0.000504	24.200000	9.161164E-6	-0.477256
	0.000513	24.300000	3.810955E-5	-0.475637
	0.000418	24.400000	2.900982E-5	-0.473253
	0.000415	24.500000	2.340462E-5	-0.474133
	0.000536	24.600000	3.197688E-5	-0.472896
	0.000448	24.700000	2.208569E-5	-0.469774
	0.000477	24.800000	2.353643E-5	-0.469442
	0.000477	24.900000	-6.664911E-6	-0.467368
	0.000500	25.000000	-4.820820E-5	-0.463447
	0.000418	25.100000	4.905594E-5	-0.462041
	0.000507	25.200000	-1.455446E-6	-0.460688
	0.000543	25.300000	1.516190E-5	-0.459411
	0.000497	25.400000	-6.928651E-6	-0.456401
	0.000471	25.500000	1.437060E-5	-0.457608
	0.000556	25.600000	6.259718E-6	-0.456032
	0.000408	25.700000	3.560381E-5	-0.452730
	0.000467	25.800000	5.558382E-5	-0.452838
	0.000477	25.900000	2.498716E-5	-0.449379
	0.000481	26.000000	3.665886E-5	-0.447921
	0.000566	26.100000	2.050318E-5	-0.446484
	0.000513	26.200000	4.523137E-5	-0.447267
	9.557425E-5	26.300000	1.160109E-5	-0.441782
	0.000411	26.400000	1.305192E-5	-0.440169
	0.000553	26.500000	-4.686659E-6	-0.439101
	0.000454	26.600000	2.584466E-5	-0.439046
	0.000128	26.700000	3.316400E-5	-0.437894
	0.000224	26.800000	2.973505E-5	-0.435124
	0.000569	26.900000	-1.240166E-5	-0.433165
	0.000408	27.000000	7.248901E-6	-0.431753
	-2.287798E-5	27.100000	5.241925E-5	-0.432376
	6.735081E-6	27.200000	-7.324146E-6	-0.429572
	0.000382	27.300000	-2.598591E-5	-0.427924
	0.000615	27.400000	2.999884E-5	-0.424890
	8.241289E-5	27.500000	2.551454E-5	-0.424701
	0.000109	27.600000	3.685662E-5	-0.421592
	4.621916E-5	27.700000	4.940936E-6	-0.420455
	2.647712E-5	27.800000	-3.499593E-6	-0.417733
	5.938052E-5	27.900000	1.489814E-5	-0.416736
	0.000122	28.000000	2.999890E-5	-0.417298
	0.000214	28.100000	7.512586E-6	-0.413549
	0.000105	28.200000	3.969217E-5	-0.412619
	8.570323E-5	28.300000	-4.093095E-6	-0.409585
	0.000270	28.400000	-2.605157E-5	-0.410051
	0.000178	28.500000	6.679438E-5	-0.408558
	0.000119	28.600000	2.254718E-5	-0.403977
	0.000217	28.700000	4.397838E-5	-0.402458
	0.000158	28.800000	2.986688E-5	-0.402619
	0.000158	28.900000	1.034797E-5	-0.400340
	0.000504	29.000000	-1.059915E-6	-0.398798
	0.000560	29.100000	2.848219E-5	-0.396674
	0.000556	29.200000	-1.035782E-5	-0.394258
	0.000629	29.300000	4.940698E-6	-0.392247
	0.000523	29.400000	1.113955E-5	-0.392850
	0.000461	29.500000	1.555764E-5	-0.389780
	0.000520	29.600000	3.138351E-5	-0.387342
	0.000497	29.700000	3.349372E-5	-0.383971
	8.899357E-5	29.800000	2.063512E-5	-0.385961
	4.950950E-5	29.900000	4.186820E-5	-0.383654
	-9.197511E-5	30.000000	1.502984E-5	-0.381057
	0.000405	30.100000	2.914164E-5	-0.377261
	0.000481	30.200000	1.905232E-5	-0.377615
	0.000536	30.300000	-1.391846E-5	-0.375681
	0.000517	30.400000	1.615097E-5	-0.373253
	0.000490	30.500000	5.268283E-5	-0.370890
	0.000474	30.600000	4.674795E-5	-0.372467
	0.000510	30.700000	8.567646E-6	-0.369897
	1.002542E-5	30.800000	4.707768E-5	-0.366466
	7.583221E-5	30.900000	1.324961E-5	-0.366426
	9.886459E-5	31.000000	3.909883E-5	-0.363944
	7.254187E-5	31.100000	1.483206E-5	-0.361369
	0.000138	31.200000	-1.367456E-7	-0.363689
	0.000135	31.300000	4.272566E-5	-0.360818
	0.000293	31.400000	-1.444613E-5	-0.356996
	0.000513	31.500000	1.753576E-5	-0.360098
	0.000543	31.600000	5.261662E-5	-0.354838
	0.000510	31.700000	5.367199E-5	-0.353809
	0.000332	31.800000	4.661598E-5	-0.351580
	7.583221E-5	31.900000	3.125167E-5	-0.349498
	0.000309	32.000000	1.733800E-5	-0.349080
	0.000553	32.100000	-1.125784E-6	-0.348872
	0.000520	32.200000	5.815594E-5	-0.345979
	0.000451	32.300000	2.643801E-5	-0.346400
	0.000560	32.400000	-4.291086E-6	-0.343416
	0.000448	32.500000	1.410696E-5	-0.341843
	0.000563	32.600000	1.021642E-5	-0.339134
	0.000530	32.700000	3.956036E-5	-0.337734
	0.000546	32.800000	3.059234E-5	-0.337499
	0.000569	32.900000	2.689952E-5	-0.334751
	0.000490	33.000000	5.545234E-5	-0.331958
	0.000530	33.100000	5.468392E-6	-0.332812
	0.000517	33.200000	3.415309E-5	-0.332646
	0.000444	33.300000	1.450252E-5	-0.329119
	0.000500	33.400000	1.048007E-5	-0.327224
	0.000477	33.500000	3.079012E-5	-0.324912
	0.000411	33.600000	2.584459E-5	-0.326240
	0.000448	33.700000	3.441697E-5	-0.323990
	0.000471	33.800000	1.957999E-5	-0.320878
	0.000448	33.900000	1.601920E-5	-0.318314
	0.000438	34.000000	7.842150E-6	-0.318457
	0.000494	34.100000	1.648067E-5	-0.316181
	0.000566	34.200000	5.241910E-5	-0.315596
	0.000448	34.300000	2.656965E-5	-0.313928
	0.000500	34.400000	3.942845E-5	-0.312376
	0.000507	34.500000	9.952596E-6	-0.312119
	0.000596	34.600000	-1.385249E-5	-0.310401
	0.000494	34.700000	3.421896E-5	-0.309191
	0.000517	34.800000	1.681037E-5	-0.305655
	0.000606	34.900000	4.753923E-5	-0.304532
	0.000553	35.000000	2.566844E-6	-0.302542
	0.000500	35.100000	9.952672E-6	-0.302327
	0.000556	35.200000	3.659288E-5	-0.300248
	0.000550	35.300000	-1.741336E-5	-0.297990
	0.000553	35.400000	-1.543519E-5	-0.298569
	0.000520	35.500000	3.336179E-5	-0.295013
	0.000230	35.600000	1.542573E-5	-0.295209
	8.570323E-5	35.700000	7.398216E-5	-0.292367
	0.000175	35.800000	1.905256E-5	-0.291400
	0.000563	35.900000	1.278790E-5	-0.291020
	0.000589	36.000000	2.907544E-5	-0.288518
	0.000612	36.100000	1.153519E-5	-0.286467
	0.000533	36.200000	4.819867E-5	-0.285012
	0.000612	36.300000	1.107344E-5	-0.282807
	0.000701	36.400000	3.026247E-5	-0.284884
	0.000579	36.500000	2.445985E-5	-0.280631
	4.950950E-5	36.600000	-2.967852E-5	-0.279901
	5.938052E-5	36.700000	3.184535E-5	-0.279874
	7.254187E-5	36.800000	1.535963E-5	-0.277241
	3.305780E-5	36.900000	4.951777E-5	-0.277569
	4.292882E-5	37.000000	3.560386E-5	-0.274413
	6.596119E-5	37.100000	3.560363E-5	-0.275870
	2.647712E-5	37.200000	2.795458E-5	-0.273328
	0.000332	37.300000	1.931641E-5	-0.271794
	0.000497	37.400000	1.380091E-6	-0.269394
	0.000560	37.500000	2.050313E-5	-0.267061
	0.000573	37.600000	3.375750E-5	-0.264155
	0.000553	37.700000	-6.137330E-6	-0.265877
	0.000520	37.800000	5.090225E-5	-0.262817
	0.000530	37.900000	4.318727E-5	-0.262519
	0.000434	38.000000	-6.862585E-6	-0.262477
	0.000379	38.100000	1.681043E-5	-0.258872
	0.000352	38.200000	-3.344415E-7	-0.258751
	0.000477	38.300000	5.367179E-5	-0.259302
	0.000474	38.400000	1.127133E-5	-0.256249
	0.000487	38.500000	-2.915102E-5	-0.253666
	0.000517	38.600000	5.600313E-6	-0.254468
	0.000527	38.700000	2.452572E-5	-0.251587
	0.000497	38.800000	3.613143E-5	-0.250071
	0.000533	38.900000	5.479291E-5	-0.247043
	0.000477	39.000000	3.375756E-5	-0.248352
	0.000458	39.100000	1.133726E-5	-0.246041
	0.000481	39.200000	7.536692E-5	-0.245231
	0.000458	39.300000	1.615120E-5	-0.241782
	0.000444	39.400000	2.854802E-5	-0.241421
	0.000550	39.500000	1.094154E-5	-0.239850
	0.000500	39.600000	-8.379348E-6	-0.239913
	0.000402	39.700000	1.219467E-5	-0.235409
	0.000425	39.800000	-2.169976E-5	-0.232787
	0.000418	39.900000	2.927341E-5	-0.229895
	0.000474	40.000000	-1.521398E-6	-0.228003
	0.000431	40.100000	1.278788E-5	-0.225837
	0.000415	40.200000	1.733822E-5	-0.222598
	0.000329	40.300000	3.885961E-6	-0.222684
	0.000306	40.400000	-2.453506E-5	-0.221584
	0.000467	40.500000	2.914164E-5	-0.218839
	0.000448	40.600000	-7.521947E-6	-0.218667
	0.000474	40.700000	5.229887E-7	-0.218249
	0.000395	40.800000	2.419594E-5	-0.216663
	0.000359	40.900000	-1.068719E-5	-0.216638
	0.000438	41.000000	9.227055E-6	-0.214427
	0.000418	41.100000	2.004146E-5	-0.212636
	0.000454	41.200000	1.973443E-6	-0.210138
	0.000398	41.300000	-3.897645E-5	-0.212074
	0.000448	41.400000	-1.602851E-5	-0.209913
	0.000359	41.500000	5.103415E-5	-0.207849
	0.000385	41.600000	-4.814201E-5	-0.205811
	0.000477	41.700000	1.380060E-6	-0.208797
	0.000438	41.800000	2.171321E-6	-0.205636
	0.000513	41.900000	1.694218E-5	-0.203908
	0.000602	42.000000	1.160110E-5	-0.201926
	0.000458	42.100000	4.562718E-5	-0.200037
	0.000527	42.200000	1.522784E-5	-0.199452
	0.000530	42.300000	3.876916E-5	-0.198599
	0.000560	42.400000	2.083285E-5	-0.197762
	0.000553	42.500000	-1.128079E-5	-0.196837
	0.000326	42.600000	1.166703E-5	-0.198687
	0.000125	42.700000	1.380087E-6	-0.194363
	0.000109	42.800000	3.138366E-5	-0.193290
	0.000105	42.900000	3.490152E-6	-0.191444
	9.228391E-5	43.000000	3.837337E-5	-0.189240
	1.002542E-5	43.100000	1.740408E-5	-0.188365
	0.000490	43.200000	1.331565E-5	-0.189211
	0.000497	43.300000	6.811300E-5	-0.185519
	0.000497	43.400000	-2.774269E-6	-0.184569
	0.000510	43.500000	4.885815E-5	-0.181622
	0.000323	43.600000	2.472362E-5	-0.180288
	-2.616832E-5	43.700000	2.182209E-5	-0.179463
	0.000385	43.800000	2.254742E-5	-0.176170
	0.000421	43.900000	4.793511E-5	-0.176953
	2.647712E-5	44.000000	-4.550412E-5	-0.175176
	0.000316	44.100000	2.037142E-5	-0.175909
	0.000425	44.200000	1.648069E-5	-0.173071
	0.000500	44.300000	-4.818419E-6	-0.172474
	0.000504	44.400000	4.479468E-6	-0.173836
	0.000546	44.500000	3.191121E-5	-0.168958
	0.000458	44.600000	4.655028E-5	-0.167423
	0.000510	44.700000	7.117048E-6	-0.167544
	0.000458	44.800000	3.349370E-5	-0.165761
	0.000257	44.900000	9.251168E-5	-0.164401
	0.000224	45.000000	4.015420E-5	-0.164217
	0.000490	45.100000	3.224085E-5	-0.162194
	0.000487	45.200000	2.103076E-5	-0.159561
	0.000425	45.300000	6.475037E-5	-0.162266
	0.000471	45.400000	1.226052E-5	-0.160913
	0.000527	45.500000	-8.774909E-6	-0.162197
	0.000352	45.600000	5.960673E-5	-0.159522
	0.000428	45.700000	2.445966E-5	-0.155482
	0.000411	45.800000	1.799746E-5	-0.158018
	0.000448	45.900000	7.776527E-6	-0.157491
	0.000362	46.000000	3.975825E-5	-0.153253
	0.000454	46.100000	1.608511E-5	-0.153335
	0.000444	46.200000	2.248136E-5	-0.153013
	0.000487	46.300000	3.323014E-5	-0.149307
	0.000448	46.400000	-3.376680E-5	-0.151675
	0.000510	46.500000	2.683374E-5	-0.149452
	0.000484	46.600000	9.820681E-6	-0.148887
	0.000520	46.700000	5.597986E-5	-0.148634
	0.000583	46.800000	1.087585E-5	-0.148321
	0.000454	46.900000	-1.846829E-5	-0.145587
	0.000517	47.000000	1.720620E-5	-0.146864
	0.000497	47.100000	4.556108E-5	-0.148901
	5.279984E-5	47.200000	2.848209E-5	-0.143645
	8.241289E-5	47.300000	1.259004E-5	-0.142788
	6.596119E-5	47.400000	2.281120E-5	-0.140503
	0.000569	47.500000	3.415322E-5	-0.142252
	0.000474	47.600000	2.452597E-5	-0.140770
	0.000474	47.700000	1.338164E-5	-0.140413
	0.000560	47.800000	6.699223E-5	-0.139256
	0.000201	47.900000	4.734172E-5	-0.140018
	0.000145	48.000000	-2.084213E-5	-0.139986
	0.000125	48.100000	1.839327E-5	-0.137562
	0.000158	48.200000	1.318369E-5	-0.137035
	4.292882E-5	48.300000	-2.378623E-6	-0.134771
	0.000115	48.400000	1.100766E-5	-0.135845
	0.000569	48.500000	-2.466686E-5	-0.135244
	0.000510	48.600000	-6.862670E-6	-0.136338
	0.000586	48.700000	3.197716E-5	-0.136077
	0.000484	48.800000	1.555777E-5	-0.137831
	0.000398	48.900000	-4.884234E-6	-0.140610
	0.000550	49.000000	-1.982912E-6	-0.140869
	0.000543	49.100000	5.927710E-5	-0.139309
	0.000553	49.200000	2.907571E-5	-0.137382
	0.000490	49.300000	7.826839E-5	-0.137927
	0.000425	49.400000	4.516552E-5	-0.136187
	0.000451	49.500000	4.008814E-5	-0.134588
	0.000428	49.600000	5.110035E-5	-0.132338
	0.000536	49.700000	-2.048728E-6	-0.133014
	0.000583	49.800000	3.237298E-5	-0.132218
	0.000586	49.900000	5.624392E-5	-0.133651
	0.000487	50.000000	4.496780E-5	-0.132868
	0.000497	50.100000	3.501041E-5	-0.130584
	0.000237	50.200000	4.200030E-5	-0.130106
	0.000115	50.300000	4.463811E-5	-0.129518
	0.000102	50.400000	-8.313320E-6	-0.130529
	0.000168	50.500000	4.542927E-5	-0.126151
	7.912255E-5	50.600000	2.887779E-5	-0.125109
	0.000145	50.700000	-2.315036E-5	-0.123525
	2.976746E-5	50.800000	2.360271E-5	-0.119708
	6.596119E-5	50.900000	-1.866616E-5	-0.117726
	0.000119	51.000000	4.562723E-5	-0.117716
	0.000283	51.100000	1.951420E-5	-0.116044
	0.000563	51.200000	-2.123791E-5	-0.116154
	0.000566	51.300000	-3.342897E-7	-0.112498
	0.000240	51.400000	-3.917404E-5	-0.114777
	0.000161	51.500000	1.747003E-5	-0.113064
	8.899357E-5	51.600000	2.037155E-5	-0.111243
	9.886459E-5	51.700000	3.094610E-6	-0.111707
	0.000365	51.800000	6.079337E-5	-0.111080
	0.000586	51.900000	-6.730792E-6	-0.108554
	0.000583	52.000000	3.619759E-5	-0.108121
	0.000569	52.100000	2.749312E-5	-0.108208
	0.000138	52.200000	-1.424801E-5	-0.105277
	1.002542E-5	52.300000	3.639534E-5	-0.105089
	2.976746E-5	52.400000	3.646118E-5	-0.103138
	0.000152	52.500000	5.732227E-6	-0.100904
	0.000451	52.600000	2.630626E-5	-0.096677
	0.000504	52.700000	1.694245E-5	-0.098194
	0.000540	52.800000	1.799760E-5	-0.093118
	8.899357E-5	52.900000	-3.462405E-5	-0.090983
	0.000411	53.000000	1.601909E-5	-0.090721
	0.000500	53.100000	-7.851547E-6	-0.088728
	0.000540	53.200000	5.888139E-5	-0.087551
	0.000487	53.300000	1.971207E-5	-0.086695
	0.000494	53.400000	7.315134E-6	-0.087138
	0.000428	53.500000	5.301247E-5	-0.086647
	0.000313	53.600000	6.000244E-5	-0.086106
	0.000349	53.700000	5.703508E-5	-0.083369
	0.000329	53.800000	2.122848E-5	-0.085098
	0.000319	53.900000	1.107362E-5	-0.085696
	0.000375	54.000000	3.507645E-5	-0.081696
	0.000434	54.100000	2.228366E-5	-0.081776
	0.000405	54.200000	5.650767E-5	-0.081101
	0.000359	54.300000	3.303233E-5	-0.079223
	0.000359	54.400000	5.769453E-5	-0.078871
	0.000421	54.500000	2.703138E-5	-0.077856
	0.000346	54.600000	7.385038E-5	-0.078768
	0.000405	54.700000	5.057267E-5	-0.075048
	0.000369	54.800000	7.160818E-5	-0.074770
	0.000441	54.900000	5.960678E-5	-0.076120
	0.000418	55.000000	-1.602845E-5	-0.073497
	0.000392	55.100000	2.729535E-5	-0.075731
	0.000497	55.200000	5.336769E-6	-0.070788
	0.000441	55.300000	6.062066E-6	-0.073397
	0.000481	55.400000	9.557017E-6	-0.070928
	0.000339	55.500000	2.070116E-5	-0.069471
	0.000342	55.600000	2.927378E-5	-0.070850
	0.000405	55.700000	3.573595E-5	-0.067587
	0.000438	55.800000	1.799739E-5	-0.068801
	0.000402	55.900000	3.804394E-5	-0.070989
	0.000362	56.000000	3.764807E-5	-0.071791
	0.000421	56.100000	1.648067E-5	-0.073086
	0.000438	56.200000	5.307847E-5	-0.069791
	0.000418	56.300000	3.072421E-5	-0.071999
	0.000306	56.400000	7.051000E-6	-0.069034
	0.000398	56.500000	2.234978E-5	-0.067619
	0.000356	56.600000	-2.642215E-6	-0.067902
	0.000323	56.700000	3.712069E-5	-0.068626
	0.000319	56.800000	-2.084233E-5	-0.066037
	0.000336	56.900000	2.670179E-5	-0.066652
	0.000332	57.000000	4.819899E-5	-0.062750
	0.000270	57.100000	2.261330E-5	-0.064075
	0.000309	57.200000	4.147279E-5	-0.059609
	0.000326	57.300000	2.802075E-5	-0.062660
	0.000346	57.400000	2.393229E-5	-0.061900
	0.000467	57.500000	1.839320E-5	-0.059632
	0.000388	57.600000	6.376127E-5	-0.060597
	0.000388	57.700000	2.380049E-5	-0.060734
	0.000431	57.800000	4.677301E-6	-0.056804
	0.000375	57.900000	1.423904E-5	-0.055948
	0.000382	58.000000	3.402132E-5	-0.056940
	0.000461	58.100000	1.311778E-5	-0.058485
	0.000461	58.200000	3.177943E-5	-0.054984
	0.000405	58.300000	1.681058E-5	-0.057686
	0.000586	58.400000	8.501949E-6	-0.053734
	0.000632	58.500000	-1.827055E-5	-0.056392
	0.000188	58.600000	1.008448E-5	-0.054023
	4.950950E-5	58.700000	7.886175E-5	-0.053659
	0.000204	58.800000	1.753599E-5	-0.054916
	0.000191	58.900000	3.982423E-5	-0.055601
	-4.920069E-5	59.000000	1.707437E-5	-0.052766
	0.000158	59.100000	-1.708348E-5	-0.053316
	0.000418	59.200000	2.986714E-5	-0.050136
	0.000474	59.300000	3.507661E-5	-0.053001
	0.000484	59.400000	3.758237E-5	-0.048758
	0.000448	59.500000	-3.620667E-5	-0.046290
	0.000490	59.600000	1.153542E-5	-0.046558
	0.000392	59.700000	2.056917E-5	-0.044783
	0.000484	59.800000	4.134100E-5	-0.044118
	0.000421	59.900000	-9.302244E-6	-0.042466
	0.000372	60.000000	-2.763410E-5	-0.043038
	0.000379	60.100000	3.586773E-5	-0.040012
	0.000372	60.200000	-1.945742E-5	-0.038384
	0.000408	60.300000	-1.866609E-5	-0.040508
	0.000237	60.400000	8.433505E-5	-0.037391
	0.000303	60.500000	-1.062118E-5	-0.037053
	0.000405	60.600000	4.259385E-5	-0.040383
	0.000388	60.700000	3.098810E-5	-0.037675
	0.000365	60.800000	4.602287E-5	-0.036204
	0.000402	60.900000	4.279168E-5	-0.035511
	0.000273	61.000000	-3.330508E-5	-0.033876
	0.000326	61.100000	3.843953E-5	-0.034482
	0.000326	61.200000	3.230697E-5	-0.033620
	0.000244	61.300000	4.859467E-5	-0.031524
	0.000339	61.400000	1.522801E-5	-0.031259
	0.000332	61.500000	3.534026E-5	-0.031873
	0.000369	61.600000	-1.009363E-5	-0.030524
	0.000428	61.700000	7.315046E-6	-0.029643
	0.000425	61.800000	1.634907E-5	-0.028549
	0.000411	61.900000	-4.422597E-6	-0.029249
	0.000352	62.000000	3.177949E-5	-0.026307
	0.000444	62.100000	2.815262E-5	-0.025515
	0.000550	62.200000	-7.785566E-6	-0.028195
	0.000342	62.300000	2.736143E-5	-0.024286
	0.000448	62.400000	-1.873195E-5	-0.025874
	0.000458	62.500000	4.773734E-5	-0.022732
	0.000395	62.600000	4.160466E-5	-0.023000
	0.000319	62.700000	1.008467E-5	-0.022751
	0.000283	62.800000	3.626350E-5	-0.018325
	0.000415	62.900000	2.314093E-5	-0.020543
	0.000342	63.000000	1.015053E-5	-0.018315
	0.000369	63.100000	1.826142E-5	-0.017728
	0.000464	63.200000	3.098784E-5	-0.017060
	0.000323	63.300000	-3.433540E-6	-0.015225
	0.000211	63.400000	2.039703E-6	-0.014017
	0.000309	63.500000	4.081366E-5	-0.015004
	0.000290	63.600000	5.466138E-5	-0.013493
	0.000385	63.700000	2.017372E-5	-0.014825
	0.000280	63.800000	1.892088E-5	-0.011444
	0.000408	63.900000	-1.213780E-5	-0.014562
	0.000474	64.000000	5.030892E-5	-0.010166
	0.000579	64.100000	4.479544E-6	-0.012077
	0.000500	64.200000	3.329619E-5	-0.012382
	0.000474	64.300000	3.098825E-5	-0.010788
	0.000513	64.400000	-1.952307E-5	-0.012640
	0.000444	64.500000	1.839334E-5	-0.010103
	0.000507	64.600000	-3.343405E-7	-0.010407
	0.000438	64.700000	2.492154E-5	-0.008720
	0.000339	64.800000	4.859452E-5	-0.011239
	0.000342	64.900000	1.116531E-6	-0.008231
	0.000362	65.000000	2.815257E-5	-0.009364
	0.000402	65.100000	9.754878E-6	-0.007940
	0.000481	65.200000	4.964969E-5	-0.006229
	0.000398	65.300000	2.973518E-5	-0.006179
	0.000362	65.400000	-1.813846E-5	-0.005980
	0.000300	65.500000	1.252434E-5	-0.004035
	0.000356	65.600000	3.421921E-5	-0.004042
	0.000421	65.700000	1.371139E-5	-0.003104
	0.000517	65.800000	6.039803E-5	-0.001065
	0.000323	65.900000	1.898664E-5	-0.002994
	0.000385	66.000000	3.745053E-5	-0.001613
	0.000441	66.100000	1.588743E-5	-0.001963
	0.000428	66.200000	2.610833E-5	-0.000599
	0.000332	66.300000	3.758217E-5	-0.001108
	0.000382	66.400000	-1.721554E-5	-0.004107
	0.000362	66.500000	3.481288E-5	-0.000781
	0.000267	66.600000	-3.433596E-6	0.002581
	0.000306	66.700000	1.404103E-5	0.001960
	0.000375	66.800000	3.085632E-5	0.002135
	0.000448	66.900000	-5.411799E-6	0.002917
	0.000342	67.000000	-1.220391E-5	0.004830
	0.000356	67.100000	3.230689E-5	0.003307
	0.000382	67.200000	1.944821E-5	0.002216
	0.000398	67.300000	3.659311E-5	0.003456
	0.000359	67.400000	3.408738E-5	0.002644
	0.000405	67.500000	4.938580E-5	0.001419
	0.000408	67.600000	-3.442624E-5	0.003049
	0.000332	67.700000	1.331579E-5	0.003474
	0.000369	67.800000	2.314120E-5	0.002886
	0.000349	67.900000	5.400183E-5	0.001881
	0.000477	68.000000	1.489835E-5	0.001369
	0.000487	68.100000	1.034818E-5	0.002763
	0.000359	68.200000	3.560382E-5	0.002286
	0.000458	68.300000	-2.444274E-6	0.001044
	0.000326	68.400000	3.362574E-5	0.000850
	0.000293	68.500000	7.380865E-6	0.001742
	0.000375	68.600000	9.844772E-7	0.004003
	0.000379	68.700000	5.205041E-6	0.003395
	0.000352	68.800000	-9.170332E-6	0.005716
	0.000319	68.900000	2.237504E-6	0.009620
	0.000402	69.000000	-1.609431E-5	0.007898
	0.000434	69.100000	3.791185E-5	0.007625
	0.000556	69.200000	-2.048623E-6	0.010456
	0.000395	69.300000	7.578554E-6	0.010088
	0.000536	69.400000	4.611441E-6	0.009561
	0.000579	69.500000	4.252785E-5	0.010940
	0.000563	69.600000	2.498734E-5	0.013772
	0.000418	69.700000	2.122867E-5	0.013101
	0.000467	69.800000	3.052667E-5	0.015633
	0.000523	69.900000	2.802066E-5	0.016112
	0.000438	70.000000	2.056940E-5	0.018156
	0.000471	70.100000	3.079030E-5	0.016940
	0.000398	70.200000	2.953756E-5	0.020132
	0.000349	70.300000	2.749318E-5	0.018869
	0.000365	70.400000	-4.293260E-5	0.021756
	0.000319	70.500000	3.679113E-5	0.024696
	0.000392	70.600000	-1.714937E-5	0.023193
	0.000438	70.700000	8.106053E-6	0.024532
	0.000448	70.800000	-2.023573E-7	0.023943
	0.000388	70.900000	1.878891E-5	0.023031
	0.000402	71.000000	2.254763E-5	0.025087
	0.000408	71.100000	3.580187E-5	0.023094
	0.000375	71.200000	-2.312546E-6	0.026454
	0.000392	71.300000	4.094540E-5	0.025640
	0.000402	71.400000	4.687992E-5	0.027791
	0.000438	71.500000	3.309823E-5	0.026371
	0.000474	71.600000	3.358456E-6	0.027327
	0.000497	71.700000	2.083323E-5	0.025758
	0.000540	71.800000	1.918462E-5	0.025132
	0.000477	71.900000	3.290060E-5	0.027597
	0.000438	72.000000	2.577864E-5	0.026951
	0.000448	72.100000	1.364544E-5	0.025292
	0.000415	72.200000	1.542580E-5	0.025579
	0.000434	72.300000	7.833443E-5	0.026458
	0.000418	72.400000	4.281753E-6	0.026615
	0.000438	72.500000	3.316407E-5	0.029394
	0.000175	72.600000	1.575560E-5	0.028537
	0.000346	72.700000	3.949448E-5	0.030341
	0.000434	72.800000	2.037147E-5	0.031690
	0.000372	72.900000	3.593382E-5	0.032919
	0.000306	73.000000	5.231173E-7	0.032104
	0.000267	73.100000	-2.400740E-5	0.032460
	0.000300	73.200000	2.287709E-5	0.037391
	0.000332	73.300000	7.710632E-6	0.039383
	0.000145	73.400000	4.101123E-5	0.038641
	0.000178	73.500000	4.094538E-5	0.037813
	0.000336	73.600000	8.304179E-6	0.041824
	0.000247	73.700000	4.149736E-6	0.041163
	0.000326	73.800000	1.931635E-5	0.042454
	0.000326	73.900000	4.875148E-6	0.043554
	0.000263	74.000000	3.909920E-5	0.043757
	0.000342	74.100000	1.318375E-5	0.044364
	0.000201	74.200000	3.540630E-5	0.043470
	0.000152	74.300000	2.267952E-5	0.044099
	0.000296	74.400000	4.002207E-5	0.043301
	0.000290	74.500000	-2.312314E-6	0.044950
	0.000257	74.600000	3.362578E-5	0.046235
	0.000286	74.700000	-4.491710E-9	0.046404
	0.000254	74.800000	-1.200611E-5	0.046644
	0.000260	74.900000	3.296636E-5	0.048800
	0.000352	75.000000	-1.932566E-5	0.048857
	0.000365	75.100000	3.514249E-5	0.048757
	0.000277	75.200000	2.142655E-5	0.047868
	0.000372	75.300000	4.562737E-5	0.047686
	0.000388	75.400000	4.450618E-5	0.049368
	0.000237	75.500000	1.786589E-5	0.050950
	0.000342	75.600000	4.325315E-5	0.048188
	0.000418	75.700000	1.714033E-5	0.053294
	0.000421	75.800000	3.738452E-5	0.057922
	0.000411	75.900000	5.571629E-5	0.058617
	0.000306	76.000000	9.557021E-6	0.059364
	0.000247	76.100000	1.206286E-5	0.063285
	0.000313	76.200000	1.885484E-5	0.065660
	0.000349	76.300000	1.450264E-5	0.064433
	0.000240	76.400000	-2.576160E-6	0.068204
	0.000267	76.500000	1.542588E-5	0.069941
	0.000211	76.600000	1.694259E-5	0.069328
	0.000336	76.700000	-1.141241E-5	0.067820
	0.000316	76.800000	4.186873E-5	0.065862
	0.000329	76.900000	5.248512E-5	0.067015
	0.000326	77.000000	3.501070E-5	0.063581
	0.000316	77.100000	2.208582E-5	0.056990
	0.000277	77.200000	4.186866E-5	0.052202
	0.000260	77.300000	4.595701E-5	0.050390
	0.000152	77.400000	1.028237E-5	0.051987
	0.000207	77.500000	-3.323903E-5	0.057345
	0.000326	77.600000	2.380044E-5	0.060344
	0.000254	77.700000	1.182520E-6	0.060208
	0.000250	77.800000	4.470409E-5	0.060505
	0.000290	77.900000	5.798146E-6	0.059526
	0.000316	78.000000	4.061560E-5	0.059542
	0.000257	78.100000	2.234961E-5	0.059168
	0.000184	78.200000	1.964615E-5	0.062026
	0.000201	78.300000	1.116432E-6	0.060416
	0.000244	78.400000	1.430485E-5	0.062985
	0.000230	78.500000	1.476640E-5	0.065502
	0.000356	78.600000	4.312142E-5	0.064952
	0.000336	78.700000	-6.796542E-6	0.065847
	0.000313	78.800000	5.468748E-6	0.066533
	0.000326	78.900000	2.716356E-5	0.064033
	0.000408	79.000000	5.459532E-5	0.065324
	0.000240	79.100000	7.051303E-6	0.065596
	0.000313	79.200000	5.116629E-5	0.066928
	0.000319	79.300000	4.450624E-5	0.064839
	0.000329	79.400000	-1.919356E-5	0.066679
	0.000280	79.500000	1.449890E-6	0.069590
	0.000303	79.600000	1.067807E-5	0.068575
	0.000402	79.700000	4.081337E-5	0.070269
	0.000336	79.800000	1.661281E-5	0.068826
	0.000458	79.900000	2.096503E-5	0.070490
	0.000323	80.000000	1.766797E-5	0.072130
	0.000316	80.100000	4.246198E-5	0.072959
	0.000362	80.200000	3.448293E-5	0.076435
	0.000454	80.300000	6.310190E-5	0.077662
	0.000356	80.400000	6.409101E-5	0.075378
	0.000356	80.500000	1.779962E-5	0.074054
	0.000342	80.600000	-6.136996E-6	0.073614
	0.000369	80.700000	1.001860E-5	0.076334
	0.000392	80.800000	2.360248E-5	0.074876
	0.000323	80.900000	2.122887E-5	0.073336
	0.000349	81.000000	3.131795E-5	0.076152
	0.000398	81.100000	2.492150E-5	0.075575
	0.000346	81.200000	-4.001358E-7	0.076961
	0.000375	81.300000	1.852525E-5	0.076719
	0.000425	81.400000	-1.853389E-5	0.076835
	0.000359	81.500000	7.780676E-5	0.077063
	0.000280	81.600000	5.336756E-6	0.076415
	0.000201	81.700000	-1.207183E-5	0.078069
	0.000326	81.800000	5.716697E-5	0.075275
	0.000254	81.900000	1.173298E-5	0.076673
	0.000428	82.000000	3.395545E-5	0.077855
	0.000369	82.100000	5.881586E-5	0.078158
	0.000319	82.200000	-1.358847E-5	0.079802
	0.000349	82.300000	2.188839E-5	0.081425
	0.000326	82.400000	-1.062105E-5	0.081948
	0.000365	82.500000	4.483598E-5	0.080558
	0.000444	82.600000	4.149930E-6	0.082554
	0.000326	82.700000	2.241586E-5	0.082979
	0.000352	82.800000	-9.500176E-6	0.082312
	0.000356	82.900000	1.615136E-5	0.081682
	0.000346	83.000000	-1.319291E-5	0.080810
	0.000349	83.100000	4.615483E-5	0.080621
	0.000359	83.200000	3.863760E-5	0.080371
	0.000309	83.300000	1.272246E-5	0.082735
	0.000379	83.400000	-3.765711E-5	0.082180
	0.000224	83.500000	2.037143E-5	0.082381
	0.000135	83.600000	3.481293E-5	0.082816
	0.000155	83.700000	4.760558E-5	0.081017
	0.000181	83.800000	8.633996E-6	0.083962
	0.000267	83.900000	4.450633E-5	0.084213
	0.000296	84.000000	2.472370E-5	0.082535
	0.000286	84.100000	-3.257982E-5	0.083734
	0.000277	84.200000	3.296647E-5	0.086859
	0.000221	84.300000	1.536003E-5	0.083840
	0.000201	84.400000	-5.532943E-5	0.085627
	0.000513	84.500000	-1.958923E-5	0.084060
	0.000221	84.600000	9.293506E-6	0.084715
	0.000119	84.700000	-2.690855E-5	0.086690
	0.000165	84.800000	2.155847E-5	0.084810
	0.000178	84.900000	4.556129E-5	0.087056
	0.000217	85.000000	3.217519E-5	0.086648
	0.000286	85.100000	3.639524E-5	0.086622
	0.000309	85.200000	1.720629E-5	0.085293
	0.000221	85.300000	5.083677E-5	0.089784
	0.000237	85.400000	1.502998E-5	0.091568
	0.000178	85.500000	9.185891E-7	0.093531
	0.000128	85.600000	-1.125612E-6	0.094262
	8.899357E-5	85.700000	1.984397E-5	0.094672
	0.000175	85.800000	-1.916836E-6	0.095899
	0.000191	85.900000	1.248494E-6	0.099643
	0.000142	86.000000	-1.068704E-5	0.099520
	0.000254	86.100000	2.986710E-5	0.100928
	0.000165	86.200000	-2.774037E-6	0.103262
	0.000109	86.300000	6.422267E-5	0.102073
	0.000148	86.400000	-9.236276E-6	0.102662
	0.000204	86.500000	5.914530E-5	0.103049
	0.000165	86.600000	4.147288E-5	0.100916
	0.000263	86.700000	1.654690E-5	0.098468
	0.000145	86.800000	-2.288610E-5	0.095996
	0.000142	86.900000	-1.424796E-5	0.089227
	0.000152	87.000000	2.765094E-6	0.087902
	0.000207	87.100000	-3.257991E-5	0.087581
	7.583221E-5	87.200000	2.327303E-5	0.086522
	0.000214	87.300000	2.914172E-5	0.090222
	0.000188	87.400000	-9.961498E-6	0.091752
	0.000267	87.500000	2.175635E-5	0.093691
	0.000293	87.600000	3.323030E-5	0.094151
	0.000309	87.700000	2.788885E-5	0.094808
	0.000230	87.800000	1.694276E-5	0.096467
	0.000211	87.900000	3.355995E-5	0.095157
	0.000240	88.000000	4.806714E-5	0.096627
	0.000375	88.100000	4.516568E-5	0.095372
	0.000402	88.200000	4.345112E-5	0.098387
	0.000402	88.300000	1.707452E-5	0.098956
	0.000313	88.400000	2.933963E-5	0.098881
	0.000372	88.500000	2.564689E-5	0.101460
	0.000382	88.600000	3.652713E-5	0.102439
	0.000329	88.700000	3.039469E-5	0.101440
	0.000250	88.800000	4.470419E-5	0.101846
	0.000326	88.900000	5.637579E-5	0.102174
	0.000339	89.000000	3.230714E-5	0.102370
	0.000356	89.100000	1.925060E-5	0.103012
	0.000221	89.200000	-1.569872E-5	0.102051
	0.000277	89.300000	-1.253352E-5	0.100139
	0.000392	89.400000	-1.455086E-6	0.102361
	0.000392	89.500000	2.070131E-5	0.101867
	0.000303	89.600000	1.667870E-5	0.102967
	0.000194	89.700000	-1.484150E-5	0.102026
	0.000277	89.800000	5.136422E-5	0.101592
	0.000224	89.900000	8.897814E-6	0.102681
	0.000227	90.000000	3.804397E-5	0.102343
	0.000306	90.100000	2.591074E-5	0.102633
	0.000263	90.200000	-6.598513E-6	0.102652
	0.000191	90.300000	4.490191E-5	0.105850
	0.000112	90.400000	4.571477E-7	0.103969
	0.000237	90.500000	3.797805E-5	0.103757
	0.000188	90.600000	-2.097392E-5	0.102604
	0.000270	90.700000	2.881214E-5	0.103581
	0.000194	90.800000	3.039485E-5	0.106549
	0.000207	90.900000	3.421940E-5	0.107864
	0.000260	91.000000	3.085638E-5	0.106439
	0.000257	91.100000	3.494475E-5	0.106461
	0.000277	91.200000	3.494480E-5	0.108134
	0.000372	91.300000	3.567016E-5	0.104908
	0.000300	91.400000	6.969610E-5	0.108472
	0.000448	91.500000	-3.829108E-6	0.106753
	0.000332	91.600000	2.914199E-5	0.109264
	0.000339	91.700000	8.446716E-5	0.109133
	0.000405	91.800000	2.999930E-5	0.107768
	0.000458	91.900000	2.445991E-5	0.109443
	0.000411	92.000000	8.040529E-6	0.111374
	0.000286	92.100000	-2.934850E-5	0.110015
	0.000323	92.200000	2.699464E-6	0.111083
	0.000428	92.300000	3.731865E-5	0.109420
	0.000372	92.400000	5.136425E-5	0.112734
	0.000382	92.500000	-3.829011E-6	0.111402
	0.000339	92.600000	2.683399E-5	0.112086
	0.000336	92.700000	2.782299E-5	0.112501
	0.000349	92.800000	4.569323E-5	0.117241
	0.000349	92.900000	6.457708E-6	0.113728
	0.000385	93.000000	6.159355E-8	0.115848
	0.000342	93.100000	4.879266E-5	0.114471
	0.000356	93.200000	7.055326E-5	0.112789
	0.000306	93.300000	2.831061E-6	0.115067
	0.000303	93.400000	2.933957E-5	0.116990
	0.000326	93.500000	2.149268E-5	0.116659
	0.000270	93.600000	3.593378E-5	0.115951
	0.000339	93.700000	-1.879770E-5	0.115381
	0.000306	93.800000	2.736136E-5	0.116532
	0.000392	93.900000	3.481286E-5	0.115722
	0.000296	94.000000	1.644446E-6	0.117434
	0.000415	94.100000	2.960352E-5	0.118171
	0.000352	94.200000	6.721676E-6	0.120300
	0.000392	94.300000	1.931674E-5	0.118762
	0.000316	94.400000	1.905295E-5	0.118454
	0.000382	94.500000	3.474699E-5	0.121180
	0.000408	94.600000	2.821874E-5	0.118957
	0.000323	94.700000	3.474681E-5	0.118757
	0.000369	94.800000	2.980131E-5	0.119273
	0.000290	94.900000	1.925063E-5	0.118046
	0.000365	95.000000	2.195448E-5	0.118902
	0.000359	95.100000	3.019699E-5	0.119386
	0.000267	95.200000	3.151582E-5	0.121621
	0.000313	95.300000	-2.773873E-6	0.120563
	0.000240	95.400000	-1.761090E-5	0.120679
	0.000234	95.500000	2.683390E-5	0.122585
	0.000244	95.600000	8.527842E-7	0.122142
	0.000254	95.700000	3.059254E-5	0.123645
	0.000267	95.800000	-1.774266E-5	0.124684
	0.000224	95.900000	4.806716E-5	0.124373
	0.000260	96.000000	5.723302E-5	0.127832
	0.000342	96.100000	-9.104229E-6	0.125452
	0.000257	96.200000	1.971233E-5	0.127264
	0.000283	96.300000	8.149979E-5	0.128047
	0.000247	96.400000	-2.756821E-5	0.127357
	0.000349	96.500000	3.144978E-5	0.127740
	0.000339	96.600000	1.991002E-5	0.128565
	0.000359	96.700000	8.567974E-6	0.127505
	0.000313	96.800000	5.835414E-5	0.128582
	0.000260	96.900000	2.769147E-5	0.129195
	0.000411	97.000000	1.160174E-5	0.127703
	0.000336	97.100000	2.571326E-5	0.127813
	0.000372	97.200000	3.158170E-5	0.129509
	0.000280	97.300000	5.387022E-5	0.127723
	0.000313	97.400000	4.008813E-5	0.130684
	0.000319	97.500000	8.238442E-6	0.129453
	0.000250	97.600000	3.125179E-5	0.125097
	0.000237	97.700000	8.169759E-5	0.127379
	0.000263	97.800000	6.336586E-5	0.128417
	0.000188	97.900000	5.057280E-5	0.127796
	0.000277	98.000000	1.489849E-5	0.126844
	0.000263	98.100000	-5.081777E-6	0.129836
	0.000227	98.200000	8.634059E-6	0.132180
	0.000342	98.300000	-4.167955E-5	0.133050
	0.000178	98.400000	2.848271E-5	0.133508
	0.000207	98.500000	1.199703E-5	0.137912
	0.000247	98.600000	2.274544E-5	0.138189
	0.000240	98.700000	1.529413E-5	0.140015
	0.000227	98.800000	5.630989E-5	0.141392
	0.000237	98.900000	3.454912E-5	0.139978
	0.000125	99.000000	0.000116	0.138322
	0.000165	99.100000	4.397888E-5	0.139775
	0.000112	99.200000	4.773763E-5	0.137969
	0.000211	99.300000	4.786962E-5	0.138640
	0.000316	99.400000	3.250507E-5	0.137225
	0.000339	99.500000	4.490200E-5	0.136447
	0.000270	99.600000	3.606564E-5	0.137810
	0.000375	99.700000	-6.202714E-6	0.138474
	0.000273	99.800000	5.677148E-5	0.139880
	0.000293	99.900000	-1.299478E-5	0.139596

